"","participant","protocol","trial","trajectory_id","practice_trials.thisN","noise_present","no_targets","trials.thisN","mouse.x.firstBadClick","mouse.y.firstBadClick","mouse.x","mouse.y","obj0finalX","obj0finalY","obj0penultimateX","obj0penultimateY","obj0preantepenultimateY","obj0preantepenultimateX","obj0antepenultimateX","obj0antepenultimateY","timingHiccupsInLastFramesOfStimuli","win.nDroppedFrames","finalStimFrameTimes","RT","anyHiccupsLastFrames","avgDurLastFrames","dx","dy","finalDirection","finalSpeed","xErr","yErr","euclidean_dist","amountExtrapolation","temporal_error","isOutlier","eccentricity","eccentricity_deg","velocityToFovea"
"1","P5",4,701,878,NA,"Dynamic","4",0,"nan","nan",-158,165,-132.468524530325,82.2139810956521,-133.956629592927,88.5602491636829,101.640737764748,-137.023808776014,-135.518892226653,95.2227743545826,0,0,"[16.38977701 16.78246498 16.53397002 16.57794698 17.17194699 16.55867201
 16.365544   16.73160601 16.75080901 16.81186497 16.27940702 17.103711
 16.34625898 17.05464101 16.27640001 16.91901698 16.678863   16.82853501
 16.701168   16.08853199 16.972415   16.45030698 17.18061802 16.15201801
 16.67812598 16.858427   16.46998801 17.07507801 16.33360199 16.81407201
 16.480408   16.65100301 16.849974   16.42571998 16.95565102 16.47490598
 16.94929    16.44808202 16.89640697]",5.78463517551427,FALSE,16.6683904351282,4.55528424568905,-19.4267566690957,-76.8034117016941,399.032401647074,-25.5314754696754,82.7860189043479,2.07920647157449,-2.07428403577777,-0.216595196615593,FALSE,155.907179689832,3.74177231255596,-6.79078136257608
"2","P5",4,702,951,NA,"Static","1",1,"nan","nan",-554,276,-603.24056746415,230.314499209562,-596.688263900356,231.93038178176,235.124865277599,-583.734831544314,-590.311737996787,233.502915315719,0,0,"[16.89640697 16.58748998 16.47098002 16.60457399 16.70304401 16.74305799
 16.731146   16.538911   16.69645502 16.575035   16.91367698 16.76688599
 16.62243801 16.48194599 16.65765201 16.934429   16.34180298 16.814084
 16.77137802 16.62750298 16.75190701 16.33259299 16.72907601 16.91271699
 16.37186602 16.83640698 16.77902299 16.36032801 16.87810401 16.745036
 16.74393    16.66741198 16.64363302 16.29361199 16.782419   16.60599999
 16.81792401 16.548463   16.74790599 16.579938  ]",4.86028773005819,FALSE,16.66517974825,-19.5057359198353,-4.81036606803738,-166.146552544087,401.838466021999,49.2405674641498,45.6855007904382,1.61207813607121,-1.40993107531171,-0.146195879950357,FALSE,645.711971997284,15.4970873279348,7.88780336161604
"3","P5",4,703,984,NA,"Static","1",2,"nan","nan",173,76,182.03589849113,53.3355272221657,188.532515825206,51.7849724265388,55.2901995923377,201.399762794453,194.945545562675,53.5319759700768,0,0,"[16.579938   16.770282   16.65291699 16.665459   16.96900302 16.48157497
 16.93367201 16.855831   16.116012   16.61036399 16.712991   16.71689801
 16.64754801 16.55261699 16.812702   16.93468    16.553447   16.52663201
 16.846062   16.698508   16.31065799 16.75014    16.71207501 16.80128899
 16.57952101 16.73549099 16.32260799 16.86898401 17.11742501 16.37451799
 16.69863402 16.60762899 16.78257599 16.62722701 16.34430999 16.665334
 16.71859302 16.62178198 16.82367301 16.46382399]",4.64388287210022,FALSE,16.66408572475,-19.3638643033228,-1.954672370172,-174.235841285893,389.305702596144,-9.03589849113041,22.6644727778343,0.585583174105424,0.161134282636833,0.0172459031512473,FALSE,189.688552115143,4.55252525076344,-9.43722136017231
"4","P5",4,704,87,NA,"Static","4",3,"nan","nan",337,-307,391.947516053331,-262.634897013835,396.436107090177,-257.737873337012,-247.887843922271,405.464602082539,400.912212888559,-252.854470974287,0,0,"[16.46382399 16.49915799 16.76299999 16.890217   16.330371   16.74111901
 16.54617701 16.36854699 16.85477802 16.67207998 16.69195501 17.08672999
 16.22844601 16.61010701 16.997125   16.49252701 16.49268999 16.692815
 18.29400699 15.180063   16.50394901 16.889894   16.41628999 16.62283801
 16.824683   16.49784399 17.16224602 16.293444   16.76178098 16.46173402
 17.08288401 16.39601099 16.63814799 16.77451399 16.67814102 16.468238
 16.84117498 16.50458801 16.66286401 16.98939898]",4.26450965108234,FALSE,16.65916002475,-13.5170860292082,-14.7470530915632,-132.508238721639,400.273866610892,-54.9475160533312,-44.3651029861655,1.69493224786149,1.67598968293866,0.174462809793332,FALSE,471.804985634789,11.3233196552349,-1.44930819433315
"5","P5",4,705,440,NA,"Dynamic","4",4,"nan","nan",190,-263,123.176963075012,-231.805546137826,125.688403722321,-238.02687608552,-250.513921862832,130.729202810879,128.241498582701,-244.351391670311,0,0,"[16.98939898 16.789863   16.615951   16.63492399 17.24215501 16.412542
 17.20493898 16.01745802 16.63618098 16.52161102 17.09926699 16.43126502
 16.44449699 16.71707199 16.51920701 16.78981099 16.645786   16.88323301
 16.67574298 16.44913401 16.75039198 16.55412003 16.97165897 16.72883303
 16.87749699 16.07177799 16.78339799 16.41842202 16.86118697 16.80853002
 16.80339    16.279929   17.10713    16.47034899 16.511686   16.72513701
 16.616462   17.00845599 16.629238   16.38491399]",4.42608782407478,FALSE,16.6770636235,-7.55223973586662,18.7083757250067,111.983056683093,403.252915803562,66.8230369249879,-31.1944538621742,1.76989418785623,-1.29457141657033,-0.133763386640226,FALSE,262.500238957298,6.30000573497515,-9.54737074986492
"6","P5",4,706,53,NA,"Dynamic","4",5,"nan","nan",136,-169,55.6465549290164,-116.900240981397,59.9873997735446,-117.008468618475,-117.224618008801,73.2091014857229,66.5634390847617,-117.115974211842,0,0,"[16.38491399 16.67866399 16.32318401 17.29864199 16.25085599 17.052154
 16.385105   16.53185501 16.704979   16.84410998 16.415291   16.808235
 16.72137302 16.595625   16.47930901 16.77775598 17.151657   16.16815702
 16.522424   16.80615998 16.93703802 16.24857498 16.83687602 16.53649998
 16.693632   16.730748   16.59108201 16.61960999 16.96884201 16.837801
 16.33190399 17.322364   15.97502202 17.01299599 16.29195601 16.902662
 16.71293    16.56527299 16.54415901 16.878533  ]",4.67631333807367,FALSE,16.66097382475,-17.5625465567065,0.324377027404097,178.941877726091,351.430876295452,80.3534450709836,-52.0997590186026,2.29837576348027,-1.9512444448363,-0.231345215665762,FALSE,129.468936108152,3.10725446659566,-4.28550604659317
"7","P5",4,707,622,NA,"Dynamic","1",6,"nan","nan",-492,365,-490.21359676534,391.167266088487,-484.312418121339,387.882383930715,381.380725384081,-472.632410521917,-478.485630336859,384.638911332267,0,0,"[16.878533   16.47751799 16.86178602 16.744553   16.46943501 16.99874
 16.34444398 16.70710399 16.65000702 16.790756   16.59057199 16.66582102
 16.69934398 16.825823   16.310006   16.84460501 16.641152   16.5844
 17.15139698 16.10366901 16.80563201 16.808574   16.89430399 16.54156501
 16.26383499 16.77783701 16.77021099 16.62942799 16.545227   17.02814602
 16.36588501 16.62636499 16.673654   16.644652   16.817639   16.55528301
 16.74685397 16.669025   16.768156   16.52212601]",5.50450508607901,FALSE,16.669851575,-17.5811862434227,9.78654070440609,150.897566741332,402.352976602482,-1.7864032346605,-26.167266088487,0.629476148405952,-0.267987976199743,-0.0277521637077916,FALSE,627.153251217557,15.0516780292214,9.46873476857029
"8","P5",4,708,761,NA,"Static","1",7,"-235.0","-109.0",-235,-109,-220.457059626724,-74.6859945704523,-217.060590913372,-80.4532466913573,-91.8948833830342,-210.322345343708,-213.75794696965,-86.0611830206818,0,0,"[16.52212601 16.71404898 16.846382   16.37885501 16.69274899 16.87139602
 16.383351   16.98999098 16.682293   16.49382201 16.60388199 16.58505699
 16.780039   16.633302   16.62777099 16.60552403 16.73749398 16.67515302
 16.891287   16.28469699 16.74272699 16.85307801 16.57854801 16.88425601
 16.36921699 16.89349901 16.43384798 16.92910201 16.41791    16.760261
 16.54336299 16.664547   16.72229802 16.98048299 16.29956398 16.74145102
 16.74045398 16.45451301 16.72541001 16.61210999]",5.22004436710267,FALSE,16.65864647475,-10.134714283016,17.2088888125819,120.494819086083,399.621038198041,-14.5429403732763,-34.3140054295477,0.894446251035882,-0.532501327518703,-0.0555214895925569,FALSE,232.764500996691,5.58634802392058,1.95981143564588
"9","P5",4,709,293,NA,"Static","1",8,"nan","nan",-149,200,-152.003537998732,203.824148647508,-152.713971872354,210.413029105202,223.666424853972,-154.1429948059,-153.397924500828,216.756310689979,1,1,"[16.61210999 16.28907802 16.66721998 16.793691   16.66435701 16.44478299
 16.95128999 16.713013   16.55243701 18.361761   14.84426099 16.775797
 16.569781   16.93568801 16.570368   16.489581   17.122082   16.38519199
 16.42261501 16.88553698 16.701085   16.685337   16.54872901 16.72780901
 16.71235199 16.84811301 16.411655   16.90598897 16.68638602 16.40608298
 17.03474601 16.321854   16.72108599 16.47042701 17.37995    15.97359098
 17.309808   15.99759801 16.59567902 16.656252  ]",3.81485677408637,TRUE,16.6536292745,2.13945680716714,-19.8422762064643,-83.8459634408355,399.458161492619,3.00353799873247,-3.824148647508,0.116703571288657,0.0989783001335945,0.0103242247535753,FALSE,254.262382463497,6.10229717912392,-8.26653292857442
"10","P5",4,710,744,NA,"Dynamic","4",9,"nan","nan",198,230,205.210267403427,158.93811133743,204.277729341841,165.469875252033,178.624696940978,202.399619220486,203.346849553805,171.990024143312,0,1,"[16.656252   17.212095   16.28634401 16.54013799 16.52840301 16.78873799
 16.994262   16.62385502 16.26833598 16.745172   16.66525201 16.643123
 16.88771698 16.350135   16.952053   16.89903499 16.227118   16.747947
 16.67339401 16.70546699 16.61150501 16.707701   16.71573601 16.523967
 16.69131199 16.77966199 16.61935099 16.67590602 16.553711   16.98314198
 16.41152502 17.06298298 16.496383   16.53512599 16.53888801 16.86003801
 16.73049    16.574337   16.51305999 17.05072299]",6.4531010290957,FALSE,16.675759549,2.81064818294189,-19.6865856035474,-81.8748068623244,397.507354765447,-7.21026740342748,71.0618886625696,1.71424189260458,-1.71282277746798,-0.179537849733481,FALSE,259.562279777505,6.22949471466011,-4.74665900406488
"11","P5",4,711,236,NA,"Static","4",10,"nan","nan",-276,-262,-135.449118048103,-303.995653413206,-141.786829685276,-305.677084112525,-309.048338907603,-154.493889664191,-148.250960618881,-307.392054565335,1,2,"[17.05072299 16.80748901 16.73404902 16.455112   16.91007    16.782027
 16.40518699 16.61686099 16.535634   17.02955202 16.403338   16.885761
 16.76922699 16.294031   16.65884201 16.93763499 16.571794   16.75670099
 16.58002002 16.41146399 16.92821601 16.65449599 16.48865    16.88597602
 16.71593697 16.700782   16.35856502 16.991257   16.462089   16.62322099
 16.58705503 16.735863   19.061295   14.307259   16.73119    17.23498999
 16.10437001 16.748697   16.524582   16.71846799]",4.58170967307524,TRUE,16.67896187575,19.044771616088,5.05268549439734,14.8585891071706,393.782062160572,-140.550881951897,41.9956534132058,3.52057875158069,-3.00196729364019,-0.317642631769592,FALSE,332.805980826864,7.98734353984474,-6.02512719735799
"12","P5",4,712,943,NA,"Dynamic","4",11,"nan","nan",-331,203,-395.866991876581,185.055481802352,-394.482368322279,191.764051851527,204.837424135794,-391.784073593854,-393.126921360456,198.331259857689,0,2,"[16.71846799 16.80245198 16.90598001 17.03305999 16.08355102 16.91497999
 16.21481101 17.14061998 17.0931     16.00464401 16.684962   16.83606999
 16.34352899 16.65980101 16.74191299 16.61224602 17.041691   16.66145498
 16.32873403 16.741195   16.60464698 16.92910501 16.89993401 16.158168
 16.650039   16.79537198 16.527445   17.067184   16.26781101 16.776095
 16.527206   17.028234   16.35175099 16.68293602 16.679744   16.64329498
 16.61072802 16.755205   16.91409998 16.58697901]",6.01904654907412,FALSE,16.6754809995,-4.08291828272689,-19.7819423334424,-101.661876747385,403.764417128696,64.8669918765814,17.9445181976484,1.61527887506592,-0.736464807446717,-0.0759998463010481,FALSE,436.985362000278,10.4876486880067,-2.22359764636979
"13","P5",4,713,454,NA,"Static","1",12,"nan","nan",-284,-324,-230.211639939595,-375.341346555992,-226.122825143669,-370.227154130291,-359.637914581312,-217.65669095445,-221.928998153558,-364.981614946444,0,2,"[16.58697901 16.87582498 16.802542   16.549722   16.55375402 16.542945
 16.58209399 16.662187   16.70186702 16.85305999 16.51849499 16.737892
 16.57939501 16.971128   16.400072   16.53287499 16.73941    16.568858
 16.898089   16.64693601 16.62323601 16.77906199 16.516092   16.71197001
 16.90488498 16.254274   17.18215202 16.330627   17.08746099 16.304716
 16.71464101 16.589056   16.74912698 16.613549   16.61192602 16.60970997
 16.97871901 16.78787899 16.352256   16.44598501]",3.72753759805346,FALSE,16.6612862,-12.5549489851447,-15.7034319746797,-128.642458459363,402.236565332528,-53.7883600604049,51.3413465559921,1.7845935137846,-0.156287141858342,-0.0161893890445146,FALSE,440.316392606661,10.5675934225599,9.52597124455088
"14","P5",4,714,466,NA,"Static","4",13,"nan","nan",-291,339,-330.845580203937,384.715974829214,-337.36812514097,383.75339121594,381.816692065873,-350.491356267714,-343.898434781251,382.789661703912,0,2,"[16.44598501 16.579299   16.67851498 16.779322   16.665651   16.72315301
 16.606597   16.78906402 16.45753501 16.92299297 16.39361802 16.804079
 16.89908799 16.70692599 16.35585201 16.69989098 16.59919601 16.85046099
 16.42143601 16.71694501 16.85317798 16.52841002 16.60944099 17.25293798
 16.06586701 16.65655602 16.93441698 16.491708   16.52787402 16.76177199
 16.86920301 16.58320599 16.77416801 16.37097399 16.84078702 16.64095599
 16.74934899 16.40237201 16.60080001 16.724243  ]",4.94235894607846,FALSE,16.6583456255,19.6457760637769,2.89928276334143,8.3949963748455,397.369567750581,39.8455802039375,-45.7159748292143,1.45544133342134,0.785862234380623,0.0824025351292429,FALSE,507.410267169746,12.1778464120739,-5.12973510927431
"15","P5",4,715,576,NA,"Dynamic","4",14,"nan","nan",257,164,280.18710194589,178.886042551055,286.005218948806,175.274588963654,168.301271938634,297.239358712238,291.536931268239,171.840914066696,0,2,"[16.724243   16.58629    17.203578   16.37595901 16.681287   16.44836698
 16.61931002 16.954302   16.23118398 16.82846402 16.95145    16.66858999
 16.344826   16.880276   16.436273   16.62798598 17.01467801 16.41911501
 16.631409   16.76087099 16.54445101 16.91017699 16.78730702 16.41560698
 16.78157202 16.52504099 16.59616901 16.64267699 16.90156999 16.79996401
 16.70743499 16.57469501 16.607556   16.356462   16.70053799 16.88858401
 16.75750001 16.40737799 17.010877   16.264301  ]",5.140568603063,FALSE,16.664207975,-17.0522567663486,10.584770612421,148.171070851386,401.465168767175,-23.1871019458895,-14.8860425510548,0.661301680521826,0.284392883197002,0.0295161433379887,FALSE,332.422965988233,7.9781511837176,-4.15025777984507
"16","P5",4,716,651,NA,"Static","1",15,"nan","nan",-275,183,-243.823617617123,143.147597838764,-237.180420596491,143.615098810693,144.557575657667,-223.787808050699,-230.620013231413,144.076773635315,0,2,"[16.264301   16.68491101 16.90920998 16.42931902 16.55374799 16.78713801
 16.64080899 16.70871899 16.901622   17.673311   15.51113001 16.59550899
 16.97230802 16.28008598 16.641828   16.79598301 16.74746498 16.54030802
 17.33911698 16.11776301 16.76440402 16.65895397 16.70169202 16.597104
 16.72732999 16.46835401 16.70627701 16.69928801 16.75005798 16.82071699
 16.31280401 16.63234198 16.76064503 16.607642   17.228693   16.11943499
 16.99103299 16.573951   16.63849602 16.583911  ]",4.7601476041018,FALSE,16.66094287525,-20.0358095664241,-1.40997781890221,-175.974566778168,401.845212707646,-31.176382382877,39.8524021612356,1.21435749566033,0.679244639046216,0.0704297552024077,FALSE,282.738733241326,6.78572959779182,7.91707281292837
"17","P5",4,717,7,NA,"Static","1",16,"nan","nan",445,-320,509.979961030103,-299.699631726058,508.31549277631,-293.338559312666,-280.594840032926,504.980910995458,506.626169005768,-286.882496957862,0,2,"[16.583911   16.631195   16.83971999 16.57157601 16.810164   16.39167199
 16.75019201 17.77158599 15.840621   16.415661   16.83777102 16.38786998
 16.93024102 16.39438199 17.04024299 16.47935499 16.90650202 16.23882601
 16.96082897 16.68490001 16.34403502 16.76816199 16.98129901 16.38359198
 16.557083   16.657448   16.57724101 16.93606601 16.50805998 16.77232102
 16.558253   16.77747499 16.892238   16.53677001 16.710547   16.49694101
 16.09184698 16.836108   16.46694302 16.84621099]",4.37889599509072,FALSE,16.65414642525,4.99905003464545,-19.1047916931324,-75.3364779800179,395.256954594264,-64.9799610301034,-20.3003682739417,1.63385194115565,0.0765601283972014,0.00807071276749064,FALSE,591.522974962935,14.1965513991104,6.80065067431103
"18","P5",4,718,430,NA,"Static","1",17,"nan","nan",232,-262,227.08469250724,-245.801353662986,221.233385147707,-242.87621990473,-236.826265754163,209.131326174804,215.249322195984,-239.884720146457,0,2,"[16.84621099 16.63997001 16.64953699 16.975498   16.653297   16.39254199
 16.59478401 16.81845001 16.77863198 16.46834801 16.747229   16.88207299
 16.32385    17.46318903 16.25885698 17.00206401 16.55831799 16.853732
 16.59783701 16.51453599 16.46780802 16.65330399 16.776401   16.62377501
 16.87490501 16.40826999 16.71258899 16.74319501 16.92021999 16.619264
 16.35415101 16.749934   16.73920901 16.54622098 16.60501902 16.66514599
 17.06550299 16.58145202 16.53035299 16.440957  ]",5.17956687009428,FALSE,16.67741575025,17.9533663324357,-8.97508790882355,-26.5609781909733,401.176471275936,4.91530749275992,-16.1986463370138,0.406271437783188,0.279354379987999,0.0290140790057133,FALSE,334.642739400789,8.03142574561893,8.97993186390039
"19","P5",4,719,760,NA,"Static","1",18,"nan","nan",-247,-304,-204.345259777856,-299.953040319863,-208.9928881444,-295.443430280631,-286.14638107654,-218.574477068985,-213.905106356872,-290.677087789628,0,2,"[16.440957   17.035953   16.31978303 16.60800597 16.64248802 16.69333299
 16.696559   17.18328401 16.457472   16.31186198 17.05956002 16.33501399
 16.81000201 16.47564099 16.720757   16.711328   16.42925499 16.93106201
 16.58437998 16.68879401 16.886242   16.31702701 16.67293499 16.924364
 16.41213702 16.75954199 16.58892399 16.82981101 16.475863   16.81496901
 16.52151198 17.00967102 16.58263098 16.669073   16.324878   17.1122
 16.33311901 16.96379899 16.318526   16.68933799]",4.24296111709555,FALSE,16.65855127475,14.2292172911291,-13.8066592433221,-44.1365007024401,396.725374958085,-42.6547402221443,-4.04695968013749,1.02831101021872,-0.667065412127949,-0.0700595271349466,FALSE,362.94463984306,8.71067135623344,1.64582482360651
"20","P5",4,720,734,NA,"Dynamic","1",19,"nan","nan",-318,260,-348.326184981584,300.323862140796,-353.988244236676,303.348475670082,309.656704685132,-365.797212930383,-360.05435571999,306.588929723277,0,2,"[16.68933799 17.78239    15.51053999 16.782274   16.599341   16.53225499
 16.780948   16.75064201 16.45166401 17.098727   16.66349298 16.66556101
 16.58351702 16.56751399 16.36464501 17.02026298 16.63835    16.65897502
 16.721163   16.443006   16.86504    16.41607098 16.650112   16.97657802
 16.39164999 17.08633499 16.24919602 16.71272199 16.590749   16.68878199
 16.70269301 16.66323299 16.83823601 16.360073   17.106869   16.58349199
 16.449836   16.97237801 16.26684598 16.76416502]",6.33781695808284,FALSE,16.66599154975,17.471027948799,-9.3328425443363,-28.1106720585374,396.166911501275,30.326184981584,-40.3238621407958,1.21091627274911,1.09796459557241,0.115477904608825,FALSE,459.919072571456,11.038057741715,-9.36671441357767
"21","P5",4,721,944,NA,"Static","1",20,"nan","nan",344,-263,450.492748473082,-176.186909663533,453.762097483158,-181.831592210036,-193.430238392134,460.479928309122,457.070174571543,-187.543140578147,1,3,"[16.76416502 16.61462098 16.82060401 16.35650601 17.010832   16.316516
 17.12255698 16.53825599 16.53517102 16.50707299 16.87978802 17.006251
 21.07940998 14.44642802 14.22624898 16.288919   17.43756601 16.289928
 16.44921501 16.49858899 16.674846   17.65547501 15.78541999 16.799504
 16.797266   16.34400102 17.35474699 15.994674   16.73113799 16.58902899
 16.63837102 17.07541599 16.71795    16.594332   16.29055    16.75194199
 16.884518   16.51205    16.44115802 16.73705998]",4.2286529680714,TRUE,16.663952275,-9.98717983604035,17.2433287286007,120.079034110531,398.600309455808,-106.492748473082,-86.8130903364666,3.29746533621269,-0.521972522069367,-0.054563066235238,FALSE,483.720522165038,11.6092925319609,-7.50671472172061
"22","P5",4,722,988,NA,"Static","4",21,"nan","nan",-352,194,-410.974416674538,110.517411338932,-412.348921840676,117.320046547397,130.291872554867,-414.969941683005,-413.649746761158,123.75802700911,0,3,"[16.73705998 16.71536002 17.226425   16.61540999 16.560191   16.469967
 16.74027101 16.311018   17.14872301 16.45033999 16.58073501 16.64439298
 16.60400702 17.81119598 15.83468899 16.93061402 16.547245   16.79013998
 16.15906402 16.857821   16.54557098 16.684528   16.81162501 16.56031699
 16.462887   16.72076902 16.94349397 16.54490802 16.574318   16.733881
 16.75013898 16.733747   16.63205202 16.45643197 16.66845501 16.69346701
 16.76245299 16.42371702 17.19307099 16.314195  ]",5.12326708110049,FALSE,16.6736173745,3.99552500846767,-19.7744612159352,-78.5769085865469,403.313417349184,58.9744166745376,83.4825886610682,2.45309169674379,-1.683573454582,-0.173931466009678,FALSE,425.574986776755,10.2137996826421,-4.27971063671066
"23","P5",4,723,661,NA,"Static","1",22,"nan","nan",219,154,225.541686683934,207.699458792272,218.852742226714,207.548326906974,207.246132139691,205.477907329086,212.189093310696,207.397766556222,0,3,"[16.314195   16.39111098 16.743844   16.24345401 17.13508301 16.598524
 16.481901   16.53441001 16.85555498 16.53505801 16.88345001 16.52403999
 16.87586401 16.61238298 16.62552002 16.54352399 16.79803702 16.764031
 16.37918898 16.82529802 16.54647299 16.87039499 16.64564101 16.60987901
 16.47533599 16.86215101 16.794089   16.39148401 16.81031499 16.670546
 16.484714   16.90816702 16.61296099 16.630711   16.48803899 16.88732899
 16.72734102 16.73020198 16.73520001 16.301486  ]",4.86057707306463,FALSE,16.6461732505,20.0637793548485,0.453326652580756,1.29433667287246,401.872143907714,-6.54168668393424,-53.6994587922717,1.29831471939977,-0.186072206247288,-0.0192922269213499,FALSE,306.607432419432,7.35857837806637,7.2068941451826
"24","P5",4,724,238,NA,"Static","4",23,"nan","nan",357,158,358.502980344784,87.1777828712419,358.541552144747,93.9469941740154,107.259337261458,358.617407515724,358.578901252237,100.501627372935,0,3,"[16.301486   16.63453499 16.71945502 16.54599898 17.23804101 16.36755801
 16.77658499 16.38743401 16.592423   17.04572499 16.604114   16.42897702
 16.70580698 16.72946301 16.86166701 16.610597   16.69789798 16.311994
 16.957449   16.65903901 16.464499   16.916875   16.338552   17.03176199
 16.27282301 16.70327099 16.82659201 16.83182101 17.20890199 16.199073
 16.505201   16.56352702 16.99494498 16.32314702 16.58821199 16.71624
 16.774749   16.49619898 16.79761801 16.54035199]",4.91187960410025,FALSE,16.65676515,-0.114427170939621,-20.0815543902166,-90.3264748770747,401.876359080622,-1.50298034478448,70.8222171287581,1.70011592076395,-1.69950008110111,-0.176204700224745,FALSE,368.950339127691,8.85480813906459,-2.32146048921741
"25","P5",4,725,674,NA,"Dynamic","4",24,"nan","nan",-479,169,-561.634998259499,129.777337942637,-559.881298946123,135.978127257662,148.819946694046,-556.249391976875,-558.006284303651,142.607867414301,0,3,"[16.54035199 16.66314001 16.21345599 17.084577   16.560472   16.608148
 16.81955601 16.38945498 17.07327901 16.227377   16.619509   16.97851901
 16.52128799 16.965925   16.354825   16.94930901 16.44690501 16.66729298
 16.72518603 16.85596799 16.508306   16.65237101 16.50338399 16.98917101
 16.773757   16.19708899 16.823527   16.69438902 16.67172398 16.79873001
 16.395841   16.834896   16.794194   16.74463399 16.62068401 16.60737902
 16.31577898 17.037988   16.284632   17.04150802]",3.77950503508328,FALSE,16.663863051,-5.38560628262462,-19.0426087514094,-105.791896339506,395.857293730143,82.6349982594992,39.2226620573632,2.19530614037747,-1.44554142824852,-0.152153045548651,FALSE,576.433889282566,13.8344133427816,0.465759059566863
"26","P5",4,726,869,NA,"Static","1",25,"nan","nan",262,-162,272.631731129524,-70.2781870361336,267.098747133176,-73.9102876918195,-81.2498582454495,255.917964918417,261.519085072359,-77.5730299377709,0,3,"[17.04150802 16.68476901 16.57130098 16.93081702 16.532701   16.78214301
 16.88135299 16.32202699 16.67405202 16.720919   16.906681   16.322624
 16.74041498 16.72669602 16.60005798 16.842721   16.705057   16.489959
 16.59016    17.497213   15.91863399 16.90514901 16.26621399 17.186896
 16.31062001 16.914429   16.922048   16.07023101 16.97703201 16.66136199
 16.56239    16.622511   16.63616599 16.741434   16.49036101 16.81123601
 16.76584198 16.68500001 16.534822   16.84118799]",5.0045225150534,FALSE,16.6846684755,16.713766211107,10.9716712093159,33.2827037852257,399.432321580288,-10.6317311295242,-91.7218129638664,2.21606241243085,-1.42132954554165,-0.148265578917766,FALSE,281.544107364667,6.757058576752,6.45626513318764
"27","P5",4,727,618,NA,"Dynamic","1",26,"nan","nan",-343,-123,-290.478442326676,-113.648914681489,-283.662255366728,-114.242557274746,-115.388949046098,-270.499418448277,-277.23153205369,-114.802628658718,0,3,"[16.84118799 16.83963899 16.53604    16.62155701 16.56393899 16.56853501
 16.799665   16.576883   17.06031201 16.588964   16.50400501 16.62754299
 16.66825998 16.54579601 16.56348299 17.80807    15.899894   16.41046701
 16.73696801 16.56008899 16.933187   16.717828   16.236494   16.92676099
 16.57935401 16.75329299 16.81872102 16.37783999 16.70959999 16.669095
 17.966635   15.532622   16.68030102 16.386626   16.75508899 16.88017501
 16.75206498 16.307529   16.91614199 16.541099  ]",5.07159895106452,FALSE,16.66904382425,-19.979023878399,1.74003436460883,175.022494895384,401.035864349265,-52.5215576733237,-9.3510853185106,1.28034023862027,1.23629153007312,0.128447731651047,FALSE,311.919542935053,7.48606903044128,8.60290452519565
"28","P5",4,728,101,NA,"Dynamic","1",27,"nan","nan",-150,159,-116.593956552585,210.22362114527,-119.802665578632,215.875114129217,227.62768683076,-126.475342376397,-123.15965894929,221.787780041714,0,3,"[16.91614199 16.541099   16.87955399 16.69525701 16.22637099 16.78454099
 16.958678   16.283273   16.97427101 16.66533999 16.620293   16.59240702
 16.83915599 16.31274601 16.68119399 16.81985901 16.66470501 16.64479499
 16.60842399 16.90548501 16.43249    16.68120999 16.62962401 16.888301
 16.68672101 16.84830399 16.29299301 16.589537   16.769259   16.585623
 16.788482   16.652808   16.693449   16.58029601 17.21361099 16.211788
 16.7175     16.99937502 16.30449298 16.667955  ]",5.87209484211053,FALSE,16.671185225,9.88138582381144,-17.4040656854897,-60.4136896133424,400.163062307983,-33.4060434474148,-51.2236211452704,1.46769823423542,0.67322447699981,0.0700989734364907,FALSE,240.391600502215,5.76939841205315,-9.59952036962144
"29","P5",4,729,195,NA,"Static","1",28,"nan","nan",343,-248,370.287933547691,-247.164940762655,365.118838802559,-251.364578843595,-259.872291580015,354.647180923631,359.830636912365,-255.660985687109,0,3,"[16.30449298 16.667955   16.56583199 16.989472   16.586121   16.63249501
 16.56761498 16.94102402 16.356412   16.540646   16.84871598 16.49668402
 16.91237499 16.74738899 16.70417201 16.62729098 16.54050301 16.71836901
 16.58206398 16.86999301 16.654337   16.68644301 16.59383098 16.38318101
 16.877224   16.71566701 16.81860499 16.66227102 16.45032098 16.44219502
 16.88520898 16.48168202 16.78704697 16.64379501 16.67666002 16.57619799
 16.64745499 16.97798402 16.56015398 16.43322801]",4.92811727209482,FALSE,16.65382769925,15.64075262406,12.7073508173598,39.0921803377567,403.354095054054,-27.2879335476909,-0.83505923734532,0.655216984937241,-0.520934749856088,-0.0538128032998603,FALSE,445.200698194899,10.6848167566776,2.8363884561347
"30","P5",4,730,999,NA,"Static","1",29,"nan","nan",-297,-304,-289.63910617541,-252.232236863745,-288.694489152039,-245.810521970193,-232.738003389028,-286.771556758622,-287.696515185787,-239.026074809175,0,3,"[16.43322801 16.36838299 17.00548703 16.76577597 16.50912    16.403758
 16.86697101 16.76789901 16.66877698 16.425304   16.65436901 16.64300499
 16.896955   16.459276   16.59542401 16.65003999 16.89040702 16.715501
 16.51920599 16.84487701 16.510705   16.675808   16.59927701 16.65704697
 16.94218302 16.376154   16.75307099 16.854338   16.50659202 16.87594998
 16.34922202 16.78181899 16.53547699 16.641266   16.81092702 17.113621
 16.07238699 16.93354899 16.43051    16.756592  ]",5.52540283510461,FALSE,16.65650645025,-2.86754941678834,-19.4942334747162,-98.3680448681118,394.320566872239,-7.36089382459016,-51.7677631362554,1.25492327152871,1.25490877826894,0.132602431001645,FALSE,384.072796666698,9.21774712000074,7.29107856899078
"31","P5",4,731,605,NA,"Dynamic","4",30,"nan","nan",-191,-132,-173.563292292074,-184.958823802878,-170.472637504028,-190.872709450949,-202.690964352083,-164.296301289536,-167.392765372089,-196.765962773647,0,3,"[16.756592   16.799323   16.533096   17.14902901 16.10031698 16.94001601
 16.652925   16.69736599 16.71121101 16.55035702 16.86192298 16.55275602
 16.38140198 16.878644   16.39678801 16.74418501 16.98731599 16.443614
 16.481044   17.228935   16.136964   16.59126699 16.670354   17.06174802
 16.41399099 16.690916   16.980627   16.63899201 16.57862301 16.74166397
 16.426994   16.80781602 16.643735   16.391137   17.104753   16.24347098
 16.71938802 16.61075398 16.70542802 17.267213  ]",4.15873256910709,FALSE,16.6818168505,-9.26699100253853,17.7321405492054,117.592010821922,399.789523026025,-17.4367077079257,52.9588238028777,1.33813200301873,1.3202861459486,0.13760221211269,FALSE,253.641445615278,6.08739469476667,-3.16163022748561
"32","P5",4,732,179,NA,"Dynamic","4",31,"nan","nan",-432,-231,-512.487236299193,-280.002212077999,-515.320253123272,-274.297983150106,-262.079495566243,-521.388589672779,-518.400718795359,-268.095520373059,2,5,"[17.267213   16.70690201 16.83636301 16.85195899 19.732196   20.86434301
 18.267279   15.948088   11.394634   13.69082902 16.561606   16.68048499
 16.64230801 17.037613   16.50016001 16.49983999 16.60966    16.752386
 16.610608   16.79164599 16.66225502 16.35933199 16.80948201 16.56487701
 16.99105499 16.485634   16.748914   16.80146699 16.389575   16.90720001
 16.38690699 16.90862901 16.47366901 16.811079   16.548671   16.57031599
 16.80634101 17.17551699 15.96322699 16.68907001]",5.22525635507191,TRUE,16.68248337625,8.90135337358572,-17.9227165117564,-63.5886143054814,399.849405931835,80.487236299193,49.0022120779994,2.2615351665355,-0.194057875615405,-0.0202219753170947,FALSE,583.990073664063,14.0157617679375,0.375055030808282
"33","P5",4,733,347,NA,"Dynamic","4",32,"nan","nan",272,164,161.819927016933,182.973755215251,167.586124330151,187.154791683795,194.857539154229,178.209222717971,172.837327216316,190.962408658756,0,5,"[16.68907001 17.060349   16.17802901 16.67386299 16.72181301 16.51491699
 17.03825302 16.43231799 16.89220499 16.74804199 16.30347501 17.01033101
 16.26796398 16.825992   16.71931101 16.60263399 16.71744502 16.648166
 16.77446399 16.41446102 16.71322199 16.97166299 16.59578501 16.820902
 16.205822   16.75880898 16.61767799 16.623617   16.67723901 16.94452
 16.73338201 16.26778499 16.91321301 16.60282098 16.53886001 16.974194
 16.572419   16.31780999 17.63543801 15.76469099]",3.80861107204692,FALSE,16.66207429975,-16.3892957010383,-11.8837839389788,-144.054348981008,404.998410007751,110.180072983067,-18.9737552152505,2.68324420745575,-1.87346435811799,-0.192744003414949,FALSE,244.264372918639,5.86234495004733,-9.37007234781727
"34","P5",4,734,792,NA,"Dynamic","4",33,"nan","nan",-368,317,-426.856586395552,371.64042669491,-420.317997269519,370.382123519508,367.872972695788,-407.279560577728,-413.674221011468,369.103577857589,0,5,"[15.76469099 16.39630002 16.74145099 16.67668301 16.518447   16.95711198
 16.57413502 16.83389299 16.34510799 17.53025802 15.74464698 17.00437901
 16.55602499 17.02547702 16.102083   16.6651     16.876843   16.45585499
 16.82607899 16.66392401 16.63519102 16.60415198 16.984544   16.35519799
 16.934079   16.55777302 16.45621998 16.66467101 16.68388498 16.545791
 16.81118199 16.92982402 16.49666901 16.48129997 16.915296   16.70111102
 16.473186   16.79983799 16.65785702 16.75171699]",5.0751505671069,FALSE,16.64244934975,-19.5770258178242,3.76745399912153,169.107018448413,399.304997800199,58.8565863955524,-54.6404266949096,1.92743669652895,-1.63492281295914,-0.170600879649855,FALSE,565.970981679483,13.5833035603076,8.30113913764282
"35","P5",4,735,336,NA,"Static","1",34,"nan","nan",-211,338,-211.193036250571,344.01135176251,-205.745729537605,340.044251881499,332.208482162602,-194.986272435121,-200.455726414918,336.191711192243,0,5,"[16.75171699 16.83890499 16.939311   16.44655    16.63442099 16.46303601
 16.56427199 16.84845102 16.74052997 16.788604   16.372507   17.04639001
 16.36927601 16.692056   16.90626098 16.52196801 16.79431001 16.504923
 16.77068399 16.51845602 16.553611   16.938516   16.45592001 16.676803
 16.72892598 16.74386699 17.209849   15.79328001 17.100564   16.25763602
 16.96973498 16.68494401 16.514085   16.59371    16.84563101 16.679344
 16.83452001 16.447381   16.804549   16.45756699]",5.21623762106174,FALSE,16.67007665,-16.2067638154495,11.8028695999087,143.935341965407,400.900232260808,0.193036250570628,-6.01135176251051,0.144346808388144,-0.0886778717320388,-0.00921653574838674,FALSE,403.666085647785,9.68798605554683,8.87634169239628
"36","P5",4,736,81,NA,"Dynamic","1",35,"nan","nan",-328,203,-406.111000234696,223.09556526509,-412.834128638755,222.031400570475,219.979682412749,-425.796374701912,-419.357595508972,220.998839132917,0,5,"[16.45756699 16.90779001 16.847822   16.58534197 16.39242901 16.88054702
 16.45334798 16.666935   16.74748899 16.72996601 16.50179899 16.94811802
 16.40676399 16.89143301 16.72748898 16.37298602 16.74585498 16.915224
 16.629299   16.62347201 16.833795   16.35699498 16.88172203 16.65263798
 16.68711402 16.710197   16.40989099 16.52438301 16.74161697 16.68360303
 16.56173199 17.027019   16.92363099 16.37889701 16.344378   17.15186
 16.30809001 16.610844   16.84094098 16.66897401]",6.33957461809041,FALSE,16.6682498745,19.6853744672155,3.11588285234075,8.99439456872638,398.57106683054,78.1110002346963,-20.09556526509,1.93570974533095,1.77621173054636,0.185685385280524,FALSE,463.354913379124,11.120517921099,-7.58790861937212
"37","P5",4,737,255,NA,"Dynamic","4",36,"nan","nan",-168,63,-212.929909194037,81.1061531813074,-219.48532426318,80.0381900246689,77.905148022892,-232.578449802806,-225.977367193392,78.9805510212415,0,5,"[16.66897401 16.520228   16.59170102 16.97948598 16.71417101 16.32514299
 16.56125099 16.72681302 16.71865198 16.88943902 16.577715   16.69411198
 16.429671   16.54452801 17.08929401 16.68044098 16.54677902 16.57613498
 16.74695802 16.26749398 16.93742402 16.96197598 16.37233901 16.658212
 16.884546   16.41028098 16.88134103 16.45723    16.768045   16.55869398
 16.92843399 16.05306001 16.770485   16.682741   16.65228701 16.629113
 16.65728298 16.504928   16.71806502 16.90572198]",4.93463679708657,FALSE,16.65602977475,19.6485406087692,3.20100515841538,9.25294610671698,398.405787899458,44.929909194037,-18.1061531813074,1.16258376273222,0.994414495149152,0.10399933574343,FALSE,227.853800304604,5.4684912073105,-8.30502895132396
"38","P5",4,738,122,NA,"Dynamic","1",37,"nan","nan",440,-164,460.459705618857,-59.9051815832701,457.5406735437,-65.7778059950442,-77.8341498484832,451.54797727204,454.41876412376,-72.0585870892042,0,5,"[16.71806502 16.90572198 16.78133401 16.76992001 16.844164   16.31662599
 16.526544   16.93875701 16.58734601 16.78954897 16.21143901 17.002751
 16.63305101 16.85699198 16.65209502 16.39965599 16.614616   17.00722802
 16.36373499 16.98414001 16.424795   16.728535   16.605663   16.72376998
 16.84583302 16.24519398 16.94456203 16.67111999 16.54635702 16.581359
 16.74425299 16.590855   16.92359798 16.534294   16.769954   17.10295401
 16.289689   17.38417    16.390684   16.69107299]",4.80589530305588,FALSE,16.6910610505,8.91172834681669,17.928968265213,63.5699812509119,399.847925421977,-20.4597056188566,-104.09481841673,2.54607433641047,-2.45571349983913,-0.25590077957425,FALSE,464.340146098879,11.1441635063731,3.12823429582285
"39","P5",4,739,549,NA,"Dynamic","1",38,"nan","nan",216,-266,265.098512300461,-270.184773484033,269.797952164356,-265.652211363252,-256.389147664681,279.402058991106,274.638650508204,-260.983406870184,0,5,"[16.69107299 16.66209599 16.95955102 16.901489   16.49210899 16.422669
 16.86948401 16.50123499 16.77172902 16.465856   17.19834001 16.62358799
 16.53713899 16.38905201 17.100047   16.483149   16.63541101 16.280796
 16.86622799 16.909114   16.29786301 17.15356001 16.624615   16.18337099
 17.08124299 16.58922801 16.41706901 17.1498     16.186911   16.69023
 16.79493499 16.83146603 16.19182099 16.86335899 16.6334     16.80652401
 16.65532601 16.70701097 16.444498   16.941668  ]",5.88894302703557,FALSE,16.6751013255,-14.3035466906445,-13.7956258193515,-136.035566199571,397.246185844894,-49.0985123004612,4.18477348403258,1.18263667869603,0.778429442790355,0.081648512363386,FALSE,378.519527959306,9.08446867102334,-0.0822933301409855
"40","P5",4,740,174,NA,"Dynamic","4",39,"nan","nan",303,-190,405.801888301798,-176.5971087772,412.433675872285,-176.49747252997,-176.29723309503,425.761610561412,419.303823340495,-176.394255153904,0,5,"[16.941668   16.48513999 16.96930701 16.58262499 16.51616901 16.48919101
 16.99262898 16.50545801 16.73124899 16.69785101 16.584222   16.56823
 16.853337   16.770555   16.395746   16.71683197 16.75882001 16.414957
 16.832939   16.71431298 16.62561402 16.775161   16.39087399 17.06003799
 16.67350001 16.534316   16.40635199 16.96166099 16.656186   16.703161
 16.50643401 16.52308801 16.64016498 16.77343601 16.57416701 17.03125201
 16.325498   17.00473099 16.57188201 16.57517799]",5.85085428910679,FALSE,16.67084829925,-19.9597222596141,-0.29987568217021,-179.13925062865,399.139352847719,-102.801888301798,-13.4028912227996,2.4881259335834,2.47179913954383,0.258034268181068,FALSE,442.562663786465,10.6215039308752,-8.74405136283236
"41","P5",4,741,285,NA,"Static","1",40,"nan","nan",-434,153,-412.186458040558,146.326234669348,-409.633316029338,141.06521294428,134.054305864058,-420.896448217345,-415.108300376552,137.657226082077,0,5,"[16.57517799 16.40340601 16.587102   16.79157099 16.52768001 17.136026
 16.62456398 16.45194701 16.64246601 16.76298099 16.21813001 17.42450899
 16.194211   16.85717201 16.28896399 16.64258199 16.81879599 16.70569502
 16.80520899 16.44438802 17.05000899 16.69348701 16.39897499 16.80346802
 16.55385198 16.554795   16.79588601 16.59977398 16.50601602 16.76144998
 16.942594   16.62807202 16.39974301 16.76061598 18.14915301 15.480567
 17.13459499 16.062143   16.33720502 16.73940799]",172.302605906094,FALSE,16.656359625,8.7099901767865,12.27192880529,54.634807608301,301.1607720791,-21.8135419594417,6.67376533065152,0.547478748214795,-0.172393214680917,-0.0238512159539099,FALSE,437.388892342421,10.4973334162181,-2.6171670067918
"42","P5",4,742,566,NA,"Static","1",41,"nan","nan",78,200,63.2024681927934,190.463252491715,69.0935689365059,193.961504198033,200.767918762543,80.5556583655138,74.8465262001218,197.37772358374,0,5,"[16.73940799 17.08038501 16.115787   16.77366099 16.556099   16.870511
 16.959951   16.332069   16.69605801 16.488686   17.02193098 16.50899401
 16.939302   16.43152299 16.660383   16.534631   16.91567901 16.52532999
 16.60912501 16.444671   16.91764299 16.92799199 16.32149401 16.68255799
 16.75706901 16.70449099 16.947189   16.11453501 16.6041     16.66488498
 16.974275   16.75253201 16.578134   16.51621397 16.58567102 16.85456798
 16.68862603 16.80041497 16.95178801 16.02587401]",4.08813267809455,FALSE,16.664355924,-17.3531901727204,-10.3046662708274,-149.297324717045,403.699058627959,14.7975318072066,9.53674750828475,0.422506691495306,-0.422223368538318,-0.0435786013857819,FALSE,200.675864356888,4.8162207445653,-7.25184203869985
"43","P5",4,743,780,NA,"Dynamic","1",42,"nan","nan",415,136,490.415967271197,78.2188708109203,486.126193635788,83.4877727397975,93.8033654958339,477.727563629802,482.100245462032,88.4326318165489,0,5,"[16.02587401 17.38742902 16.19083999 16.69852599 16.51398902 16.58685101
 16.82281197 16.69727801 16.56458701 16.76179699 16.81901101 16.303279
 16.95794499 16.26577901 16.946096   16.68536698 16.517204   16.95757802
 16.57578201 16.64380799 16.66625601 16.603825   17.20253099 16.19426199
 16.66782101 16.68317302 16.623231   16.30160699 17.11269299 16.321106
 16.94883301 16.54752399 16.75156399 16.75467202 16.369805   16.72681799
 17.126755   16.100443   16.862763   16.666379  ]",5.75635735003743,FALSE,16.65384732575,12.6884036413956,-15.5844946849135,-50.8486066292971,402.240755730068,-75.4159672711973,57.7811291890797,2.28015498544588,-2.21816727786401,-0.229771934497085,FALSE,496.614551443551,11.9187492346452,4.81295680837046
"44","P5",4,744,63,NA,"Static","1",43,"nan","nan",220,242,278.93360048084,328.154451788568,285.59701925119,328.62819228743,329.565503686331,298.780815832056,292.094634123018,329.090144840147,0,5,"[16.666379   16.62147199 16.76150199 16.38601202 16.54266799 17.00011099
 16.41793302 16.92489398 16.42259001 16.77904199 16.491449   16.65191702
 16.67299299 16.77784001 16.67846198 16.50417002 16.91942898 16.575355
 16.51600702 16.979129   16.55302799 16.65795301 16.723988   16.621349
 16.67151501 16.84027599 16.573231   16.6149     16.58895001 16.618906
 16.80772202 16.51181999 16.86708099 16.43964401 16.702539   16.82426999
 16.727432   16.41049501 16.68233701 16.64534101]",5.25895004207268,FALSE,16.659303276,-19.8472153512157,-1.41105189776243,-175.933358324691,398.122131642046,-58.9336004808401,-86.1544517885685,2.50518603805934,1.55748024232336,0.163002769600245,FALSE,430.684684782105,10.3364324347705,-6.72052754881338
"45","P5",4,745,781,NA,"Static","1",44,"nan","nan",337,309,455.700166363703,338.069370035281,452.108068207989,332.339953508791,321.020950955255,445.011539615751,448.613916100606,326.766761473862,0,5,"[16.68233701 16.64534101 16.39148901 16.897964   16.99072801 16.40653299
 16.60965499 16.54179901 16.593293   16.89027602 16.58210298 16.711712
 17.07564    16.22643601 16.713372   16.88050499 16.48811001 16.533766
 16.63359601 16.68946099 16.66453699 16.523311   17.03728401 16.83447202
 16.20369198 16.857348   16.471073   16.98518099 16.58399802 16.62000699
 16.670426   16.80621601 16.36551999 16.849184   16.59836899 16.46716299
 16.830762   16.56415101 16.803012   16.68627199]",4.94515110205975,FALSE,16.6651523505,10.6886267479521,17.0484190800259,57.9140538722278,402.476792702523,-118.700166363703,-29.0693700352809,2.93298831824384,-2.10435653740627,-0.217854852706339,FALSE,567.409499902811,13.6178279976675,8.94158462539625
"46","P5",4,746,875,NA,"Static","4",45,"nan","nan",184,-303,154.236503201803,-310.796118158706,153.745378579115,-304.098417254437,-290.902794262975,152.777778583918,153.262964852737,-297.519511001036,0,5,"[16.68627199 16.44149999 17.19632401 16.27994    16.97863601 16.32992798
 16.950883   16.339608   17.31525001 16.264081   16.597921   16.418121
 16.65517999 17.05392901 16.465711   16.563821   16.607556   16.83378799
 16.83636001 16.48884302 16.478954   16.69663799 16.68246699 17.03854001
 16.43782799 16.53277801 16.59082199 17.06965701 16.32640499 18.28678601
 15.05160399 16.893124   16.75888398 16.69805002 16.992858   16.35082898
 16.64013902 16.47584999 16.80987401 16.35087098]",5.16197784309043,FALSE,16.66166524925,1.4587246178842,-19.8933238957308,-85.806158501655,399.054438222494,29.7634967981975,7.79611815870567,0.738422396193715,-0.1343666057093,-0.0140296862657603,FALSE,346.962715550878,8.32710517322108,8.88838003056606
"47","P5",4,747,230,NA,"Dynamic","4",46,"nan","nan",235,121,301.658489519351,58.1900502978023,307.23906091764,61.4262840792796,69.1437673391537,318.123638555817,312.541232764955,65.1856786862976,0,5,"[16.35087098 16.64471798 16.67998702 17.20617199 16.044277   17.01034
 16.465672   16.87459101 16.45723099 16.57004701 16.54958    17.80555898
 15.812789   16.52564699 16.90520102 16.87885201 16.482829   16.42213599
 16.96006299 16.70400001 16.443231   16.69523501 16.84304798 16.385539
 17.19312501 16.62654101 16.380527   16.46461    16.892329   16.727045
 16.70385597 16.55162501 16.74968301 16.797563   16.351517   16.76031199
 17.05507998 16.204924   16.54383203 16.80434798]",4.3412478340615,FALSE,16.66311329875,-16.465149036466,-10.9537170413514,-146.365495826142,395.601750981412,-66.6584895193509,62.8099497021977,2.1981227781446,0.497017271957739,0.0523482339167203,FALSE,307.219671005548,7.37327210413315,-8.85531582651105
"48","P5",4,748,963,NA,"Dynamic","1",47,"nan","nan",207,153,214.224654163191,227.415502722985,208.171359208376,230.217177278585,235.835428131184,196.03257261271,202.195999139095,232.982780869953,0,5,"[16.54383203 16.80434798 16.40021199 16.71451601 16.46045301 17.11945698
 16.80043602 16.42438999 16.56428899 16.85713799 16.47263402 16.48842401
 16.54779699 17.142764   16.32749802 16.670179   16.96096    16.38172998
 16.628454   16.77270501 16.68752299 16.75605599 16.48662103 16.786141
 16.61500797 16.68830801 16.566993   16.763522   16.74355101 16.706845
 16.39003801 17.82304799 15.31488    17.06337    16.52232598 16.65328201
 16.83495098 16.49012801 16.669873   16.67196999]",4.95545876209508,FALSE,16.65791624975,18.1920815504808,-8.41992540819896,-24.8363338876516,401.133028801576,-7.22465416319088,-74.4155027229854,1.79436922059436,0.592802742731566,0.0615758676224591,FALSE,312.426012569515,7.49822430166837,3.03863537346369
"49","P5",4,749,43,NA,"Dynamic","4",48,"nan","nan",-97,-52,-80.8724902287442,-78.785444510562,-82.5794718661804,-85.1835407511032,-97.9196716780462,-85.977411004157,-84.2880090459521,-91.5874674641873,0,5,"[16.67196999 16.49469501 17.017996   16.38981901 16.63289298 17.03228502
 16.501026   16.43832901 16.84130798 16.74260502 16.532426   16.70998699
 16.568463   16.56642099 16.651229   16.886859   16.865802   16.45451001
 16.620293   16.79771699 16.87214602 16.201102   16.68637499 16.80553198
 16.71864101 16.500522   16.80594499 16.398248   17.03429801 16.331263
 16.741987   16.72739899 16.961293   16.77456399 16.05733999 17.01602101
 16.467735   16.573153   16.667527   16.84340902]",4.73688926207251,FALSE,16.665028325,5.10492077541279,19.1342271674843,75.0617052800954,396.109065560285,-16.1275097712558,26.785444510562,0.750381640775545,0.521349032047518,0.0548406442164783,FALSE,112.904853494104,2.7097164838585,-8.24510270689954
"50","P5",4,750,265,NA,"Dynamic","1",49,"nan","nan",-418,-96,-436.349524022336,-136.852154232037,-432.185016369241,-142.05838840597,-152.554312580625,-423.789244090978,-428.135107467865,-147.121357640278,0,5,"[16.84340902 17.22012102 16.07051899 16.92205999 16.681724   16.59659401
 16.788056   16.485086   16.722851   16.46888    16.88678699 16.59045799
 16.453524   16.92101802 16.647891   16.521351   16.80764    16.56781
 16.75542499 16.751738   16.47935898 16.75124501 16.70554499 16.49868101
 16.72794801 16.90891798 16.51310502 16.88230899 16.70469    16.399393
 16.82233901 16.24682298 16.84838999 16.66351402 16.56188699 16.759641
 17.199147   16.290509   16.662282   16.584089  ]",4.05845342506655,FALSE,16.6728189,-12.5602799313584,15.7021583485884,128.656589174643,402.005014203103,18.349524022336,40.8521542320368,1.07481516432026,0.490549321577544,0.050844030157804,FALSE,457.306701495253,10.9753608358861,3.47840838549392
"51","P5",4,751,796,NA,"Dynamic","1",50,"nan","nan",-361,176,-355.538789652628,175.102085514651,-350.188636829208,179.073703883258,186.993205715844,-339.520304387047,-344.759085722138,183.104262564821,0,5,"[16.584089   16.48592399 16.767794   17.129416   16.49375001 16.617844
 16.51818899 16.514327   17.12128302 16.338716   16.877524   16.35287999
 16.92847401 16.5151     16.78203    16.51694    16.77303499 16.51929601
 16.81155799 16.42253401 16.71897699 16.54475401 16.93332399 16.71093801
 16.42415198 16.67699902 16.98450898 16.67500901 16.629252   17.25348301
 16.02726799 16.75518099 16.35758602 17.04672098 16.34942301 16.81339901
 16.43123699 16.81715902 16.64716398 17.00356399]",4.29452826705528,FALSE,16.67177004975,-16.018485265581,-11.8911202011932,-143.412120686844,398.871904209269,-5.4612103473724,0.897914485348764,0.132828820952375,0.0923960970368959,0.00965181386783639,FALSE,396.318774850796,9.5116505964191,4.38694401292378
"52","P5",4,752,192,NA,"Static","4",51,"nan","nan",204,191,219.977890258863,162.967802620198,215.388089174258,167.552004902292,177.018606865349,205.909925410132,210.588664046967,172.345575520213,0,5,"[17.00356399 16.75931999 16.746001   16.620051   16.742348   16.40171401
 16.59135299 16.77890299 16.78101302 16.43350898 16.88277401 16.682232
 16.62342699 16.509746   16.67769701 16.87545501 16.75285    16.50851499
 16.696726   16.56544799 16.67312099 16.83293801 16.44166899 16.67902799
 16.64852901 17.84591499 15.44874502 16.81239199 16.884479   16.46821402
 16.60372998 16.82811402 16.68953599 16.54931801 16.74841699 16.612915
 16.535317   16.99152199 16.30850701 16.83260998]",4.04782345908461,FALSE,16.67669154875,14.0679648487315,-14.050804245151,-44.9650329630822,397.420474549265,-15.9778902588635,28.0321973798022,0.774384859504069,-0.746750968739075,-0.0782914461887002,FALSE,273.767742609673,6.57042582263216,1.41939183109309
"53","P5",4,753,141,NA,"Dynamic","4",52,"nan","nan",-290,156,-333.936191731736,179.196863797275,-327.559339153636,181.52969353435,186.078552204742,-315.124912123367,-321.308037071978,183.816593413707,0,5,"[16.83260998 16.38175102 16.72789798 16.61061801 16.42516599 17.26061502
 16.22878198 16.53958001 16.81938898 16.52460702 17.056232   16.27976898
 16.842115   16.79129101 16.42890301 17.29369798 15.93199201 16.61396999
 17.04684601 16.62623399 16.575694   16.52843002 16.73190101 16.41652899
 17.06055799 16.73603299 16.23853602 16.93781899 16.45255601 16.97949099
 16.68372902 16.46360799 16.93462199 16.30478402 16.89462    16.629074
 16.447184   16.76642199 16.85629302 16.70514498]",6.31981060508406,FALSE,16.66512734975,-18.8112796083683,-6.88168840746653,-159.906077189371,400.64747548184,43.9361917317357,-23.1968637972754,1.19241203362609,-0.799015437160141,-0.083096267714238,FALSE,378.978754210673,9.09549010105616,6.38460712128183
"54","P5",4,754,443,NA,"Dynamic","1",53,"nan","nan",-410,238,-394.10256640581,181.188753315734,-388.321209292749,177.7747215798,171.077381127697,-376.979862797985,-382.666540616701,174.435502441683,0,5,"[16.85629302 16.70514498 16.79160399 16.478976   16.73215401 16.67924001
 16.81444899 16.771806   16.34236201 16.731657   16.73549    16.705152
 16.63210598 16.472916   16.723209   16.61925099 16.71351702 16.89269301
 16.49360399 17.05641    16.48761501 16.85837298 16.67575    16.399243
 16.76883301 16.99961998 16.60775402 16.35074598 16.941629   16.38678001
 16.846446   16.45480198 17.26126001 16.25298199 16.65709302 16.752778
 16.56011998 16.524829   16.765195   16.89735   ]",4.80486794907483,FALSE,16.68493079925,-17.1227036078254,10.1113721880372,149.437117846683,397.271490803704,-15.8974335941901,56.8112466842655,1.41584666519664,1.02183411682391,0.107172104014297,FALSE,433.758224332122,10.4101973839709,9.54962363137856
"55","P5",4,755,188,NA,"Dynamic","1",54,"nan","nan",171,-155,163.87626404871,-156.059590014225,165.583663246809,-162.447621799983,-175.247970487691,169.004952591908,167.342337148823,-169.027491814776,0,5,"[16.89735    16.58622501 16.64070599 16.59020901 17.102749   16.322607
 16.51288499 16.95295199 16.418193   17.12553401 16.28933899 16.58559902
 16.561489   16.86082399 17.04416299 16.399541   16.73669601 16.67328199
 16.299857   17.24553801 16.28297401 16.48136199 16.672358   16.851861
 16.56880698 16.834685   16.43284    16.79954602 16.67167299 16.89499
 16.50892    16.52933299 16.77074601 16.67966202 16.451123   17.05092599
 16.26921701 16.914879   16.54944598 16.6574    ]",5.58591297507519,FALSE,16.66796214975,-5.12868854319785,19.1883804734656,104.96427128687,397.208293344259,7.12373595128966,1.05959001422508,0.172850567437653,-0.0195794669935714,-0.0020538622642128,FALSE,226.296322449064,5.43111173877753,-8.1910044637594
"56","P5",4,756,35,NA,"Dynamic","4",55,"nan","nan",284,-211,281.801210566714,-226.531459879384,277.511024563191,-231.508493389358,-241.588086833536,268.822449204245,273.11771091965,-236.605165003544,1,6,"[16.6574     16.43116801 18.50506099 14.90609502 16.95202099 16.307082
 17.20302901 16.26868098 16.474142   17.046494   16.37252801 17.04978599
 16.48491999 16.727454   16.677065   16.58138601 16.668141   16.49972401
 16.949029   16.70303798 16.280034   16.65240902 16.844798   16.59619799
 16.74347799 16.61629401 16.61547599 16.728936   16.706461   16.69865401
 16.95854499 16.25892601 16.70278498 16.527236   16.70961201 16.93506399
 16.44222401 16.726962   16.52178098 17.01754401]",5.55325625208206,TRUE,16.6686915245,12.9787613624692,15.0566269541528,49.2387731932105,397.51944076371,2.19878943328581,15.5314598793837,0.376471898647346,0.316793063881612,0.0332051961275353,FALSE,361.563859631947,8.67753263116673,0.329422082883206
"57","P5",4,757,994,NA,"Dynamic","4",56,"nan","nan",478,-199,579.107331368208,-63.8680550486657,573.326936510019,-67.5431963792172,-74.7090313067017,562.056252842666,567.727555742374,-71.1032500069577,1,7,"[17.01754401 18.45228201 15.067553   16.68857    16.627573   16.406421
 16.911985   16.605432   16.809161   16.62278001 16.76781301 16.67661397
 16.71974402 16.48460698 16.662031   16.83557502 17.99151799 14.899848
 17.363575   16.16520601 16.78860499 16.78279802 16.46193498 16.66531002
 16.63591698 16.95832802 16.50783798 16.51740802 16.72379998 16.70684601
 16.80348199 16.44587299 16.49205902 17.25350699 16.355359   16.45195601
 16.79573901 16.60594001 17.09041698 16.38367301]",4.90326337309671,TRUE,16.680065551,17.0510785255419,10.840976258036,32.4479626826487,403.787270091184,-101.107331368208,-135.131944951334,4.0504815715632,-3.78780394013094,-0.390862159018738,FALSE,582.618597111444,13.9828463306746,7.48778109450054
"58","P5",4,758,106,NA,"Dynamic","1",57,"nan","nan",345,-262,356.993851334871,-213.007202583432,361.282568109272,-208.148959729711,-198.046164234477,370.201024805107,365.746196221826,-203.092577944624,0,7,"[16.38367301 16.91160499 16.81123101 16.29800801 16.799531   16.69294201
 16.46123599 17.11534598 16.372215   16.91405501 16.454989   16.770424
 16.43188699 17.00438    16.48753899 16.71889401 16.50852998 17.11095302
 16.23226798 16.852375   16.67153402 16.61341899 16.428806   16.798842
 16.77876699 16.63194501 17.062934   16.40763599 16.92347601 16.134529
 16.790197   16.70331598 16.587872   16.79500903 16.44125397 16.75047301
 16.801196   16.793135   16.368916   16.63712601]",4.97062663707766,FALSE,16.66131157475,-13.2071734702357,-14.9610383489547,-131.437136353925,399.258387798724,-11.9938513348711,-48.9927974165684,1.21054883465364,1.07199691024397,0.111873762184678,FALSE,415.712254141399,9.97709409939358,-1.76822445497052
"59","P5",4,759,333,NA,"Static","4",58,"nan","nan",445,-287,544.925094764148,-323.497043202755,539.738043175986,-319.209210251195,-310.841830317157,529.615906454261,534.617217346339,-314.976122270796,0,7,"[16.63712601 16.68289601 16.79099599 16.49199001 16.859706   16.42804701
 17.01879699 16.521301   16.35156901 16.76459899 16.74027901 16.62921
 16.62258001 16.86634897 16.72487802 16.40613598 16.68625002 17.08579098
 16.363053   16.49200401 17.132421   16.34379799 16.919524   16.445113
 16.56189101 16.953768   16.55852998 16.72004102 16.56285897 16.66095603
 16.80036099 16.75828299 16.49221001 16.711954   16.33886201 16.99074599
 16.402393   16.59726299 16.831418   16.545939  ]",5.89003571408102,FALSE,16.662297175,15.3091883098878,-12.6552128855973,-39.5785536803306,397.357575217301,-99.9250947641483,36.4970432027548,2.55315996879801,-2.40650419281826,-0.252344523642866,FALSE,633.714206771981,15.2091409625275,9.48485776891002
"60","P5",4,760,282,NA,"Static","4",59,"nan","nan",-328,182,-258.886413530526,125.530587057938,-265.583247384224,126.120620052357,127.287034277433,-278.82196851307,-272.229574876286,126.706203120072,0,7,"[16.545939   16.55931398 16.76207001 16.822429   16.57472301 16.949521
 16.90138201 16.14443699 16.73881701 16.67663301 16.73314199 16.744497
 16.625947   16.55366799 16.67981202 16.79018498 16.59857502 16.689084
 16.53546098 16.842304   16.31472699 17.14596801 16.62414    16.50470201
 16.61838699 16.665495   16.60554999 16.751335   16.45681    17.12147202
 16.530655   16.545069   17.10255799 16.09383401 16.598891   16.91319098
 16.557867   16.68866302 16.80379399 16.61385101]",4.89310080007999,FALSE,16.66812247525,19.9355549825437,-1.75644721949411,-5.03511507272032,400.22068927072,-69.1135864694735,56.4694129420616,2.14198923462094,-1.77127184068848,-0.184405742482987,FALSE,287.715316585352,6.90516759804845,-8.97236059286074
"61","P5",4,761,79,NA,"Dynamic","4",60,"nan","nan",214,257,214.893268728926,198.206669042238,210.061211979674,202.257859198601,210.978551840329,199.659606498029,204.730437128339,206.727173969555,0,7,"[16.61385101 16.56176598 16.52344101 16.84849901 17.13361198 16.079644
 16.99640902 16.91693798 16.016757   16.72715202 17.209015   16.06694399
 16.893472   17.33725501 15.759467   16.79488199 16.49844699 16.81118601
 16.761882   16.297747   16.78400501 17.02367098 17.053605   15.924885
 16.761387   17.313583   16.554431   16.30543402 17.027489   16.178644
 16.893144   16.46870098 16.57915101 17.11554901 16.08641801 16.91503898
 16.559629   17.370808   15.88029502 16.94220499]",5.32020441908389,FALSE,16.66466097525,15.2336622308974,-12.7718827980915,-39.976425189525,397.633291742217,-0.893268728926301,58.7933309577623,1.41120279471786,-0.922982636153738,-0.0967162726019202,FALSE,292.343976503402,7.01625543608165,1.22591944796696
"62","P5",4,762,867,NA,"Dynamic","4",61,"nan","nan",283,194,264.453977518695,221.447314077228,259.192270944655,225.205018311949,233.045583967089,248.213558072402,253.764837429344,229.08107822087,1,8,"[16.94220499 16.812727   16.76303701 16.83721898 17.025546   16.02630902
 16.59602398 17.34971601 16.129139   16.60632101 16.581403   16.822334
 16.46503399 16.78115499 16.62030502 16.616576   16.62741398 16.74770901
 16.80500899 17.20704001 16.151552   16.63740299 16.72963399 16.49043502
 16.74235798 17.26623601 16.26229798 16.43600801 17.26713098 16.357499
 16.459306   19.45532602 17.518971   13.18322998 16.396049   16.85516699
 17.15372602 16.679383   16.08951599 17.43933599]",4.75268135909573,TRUE,16.6983196485,16.240419446293,-11.5982698898607,-35.5329359136521,398.378016857793,18.5460224813049,-27.4473140772284,0.79501607528421,0.745055761958159,0.0779259616944968,FALSE,344.927266445373,8.27825439468895,2.40771596958498
"63","P5",4,763,232,NA,"Dynamic","4",62,"nan","nan",-510,-308,-535.129440235996,-342.403840991228,-528.710043813354,-344.568408284403,-348.808888448207,-516.134170898877,-522.348690882338,-346.713403793055,0,8,"[17.43933599 16.917381   16.61892    16.66782302 16.66500399 16.76641501
 16.48891499 16.48512002 17.05649198 16.44008301 16.68924699 16.64314902
 16.55136998 16.97814901 16.34377    16.95602899 16.41791602 16.748419
 16.64699399 17.031475   16.37070999 16.79268203 16.692198   16.61908798
 16.47023202 16.74533699 16.57782999 16.80137499 16.70955901 16.652836
 16.494054   16.868593   16.68014901 16.540362   16.64138999 16.74350901
 16.513596   16.745083   16.85052298 16.49745202]",4.20757841310115,FALSE,16.6889641255,-18.9952693371192,6.40504745697882,161.366319889203,400.385728814284,25.1294402359961,34.4038409912279,1.0224994434805,-0.307669996155771,-0.0320180821906951,FALSE,635.298282803312,15.2471587872795,6.00926751393596
"64","P5",4,764,500,NA,"Dynamic","1",63,"nan","nan",-537,141,-605.194535499795,72.2808703203364,-598.46383628756,73.2948721005477,75.2827390974789,-585.268854689516,-592.398528055173,74.2086305602917,0,8,"[16.49745202 16.463304   16.83281999 16.71081001 16.57019    16.55068601
 16.963181   16.640752   16.371062   16.72736899 16.57165302 16.871303
 16.54444699 16.63880801 16.71216098 16.53186101 16.82930699 16.83052402
 16.49219898 16.74543801 16.51306101 17.09697599 16.20695199 17.01192601
 16.293547   16.72588699 17.008353   16.42404901 16.71768399 16.51241499
 16.82341303 16.73014299 16.473725   16.897578   16.47557499 16.63618002
 17.882021   15.46479398 16.89554402 16.52315   ]",6.08784645306878,FALSE,16.660207501,-19.9256808102787,-3.00186877714245,-171.432632468641,403.166903202158,68.194535499795,68.7191296796636,2.32351900156526,-1.86409962229971,-0.192651770219528,FALSE,609.495652169134,14.6278956520592,9.25628625729803
"65","P5",4,765,339,NA,"Dynamic","1",64,"nan","nan",172,-84,171.154391729695,-55.3559578613681,169.666885622507,-61.7508971401263,-74.6993323605764,166.654992056459,168.148560865684,-68.2783289122655,0,8,"[16.52315    16.773343   16.57335099 16.89804898 16.45312802 16.839838
 16.45907498 16.88504001 16.405681   16.70547199 16.779953   16.50188302
 17.054066   16.637222   16.51185099 16.55157001 16.600843   16.61766
 16.74874598 16.84946002 16.68125499 16.339995   16.858449   16.71229099
 16.55833202 16.76055399 16.54972701 16.840436   16.547537   16.424492
 17.069364   16.47585101 16.64891999 16.90105899 16.47791502 16.75401299
 16.48693101 16.73008798 16.532573   16.684817  ]",4.2074280391098,FALSE,16.6600994995,4.49939967323681,19.3433744992082,76.9054641388357,397.352104606473,0.845608270304581,-28.6440421386319,0.687756507167063,-0.66498355179106,-0.0697307191029856,FALSE,179.883595358531,4.31720628860474,-0.807994531391458
"66","P5",4,766,450,NA,"Static","4",65,"nan","nan",312,71,355.922085587419,76.0991658790331,358.989177797142,82.085157144621,93.9699001726566,365.078662585636,361.979645470141,87.9216016159814,0,8,"[16.684817   16.810651   16.898097   16.24265901 16.557489   16.85888201
 16.56624    16.78698798 16.58394502 16.721747   16.83509399 16.46211199
 16.735474   16.69107002 16.69514598 17.00082101 16.32105801 16.80918998
 16.94466302 17.13967699 16.060403   16.73028502 16.63185298 16.779225
 16.48472901 16.801152   16.67498099 16.54550302 16.921918   16.310242
 16.81047498 16.45061703 16.769382   16.938972   16.516398   16.535426
 17.111222   16.25026099 16.85653703 16.48564197]",5.62084092205623,FALSE,16.67527607575,-9.15657699821736,-17.8707342936235,-117.129618320614,401.392478839699,-43.9220855874187,-5.09916587903307,1.0612101727396,0.58960400005639,0.0612040200820354,FALSE,363.966501283267,8.73519603079841,-6.06725156675155
"67","P5",4,767,684,NA,"Static","1",66,"nan","nan",270,139,334.703410318064,109.297027713282,332.316591412382,115.440494406214,127.988552325002,327.441503230557,329.872062104057,121.73250271478,0,8,"[16.48564197 16.40713902 17.002546   16.41228999 16.740942   16.75558
 16.68156002 16.543059   16.525799   17.055042   16.44047699 16.66453699
 16.810537   16.753403   16.59043101 16.541524   16.66528799 16.43207599
 17.33599501 16.10470499 16.72314201 16.801622   16.60603902 16.88474699
 16.44856    16.651599   16.69411099 16.71093801 16.93455598 16.35637201
 16.629266   16.91343199 16.347158   16.63266201 16.81702901 16.56408398
 16.80727    16.78151701 16.54386698 16.725066  ]",4.7768272930698,FALSE,16.663040224,7.26190708750738,-18.69152461172,-68.768186404138,401.140090615802,-64.703410318064,29.7029722867182,1.70869177232323,-1.22684770236104,-0.127433421542508,FALSE,352.096880340483,8.45032512817158,0.527090395799236
"68","P5",4,768,903,NA,"Static","4",67,"nan","nan",-341,348,-383.976902864717,385.694643117309,-380.528124769455,379.909959336813,368.505753237112,-373.729036403878,-377.106089570049,374.170131789926,0,8,"[16.725066   16.717705   16.66458198 16.626411   16.69892401 16.49568899
 16.79011001 16.85734201 16.63999198 16.60526101 16.53916299 18.17939401
 15.06658999 16.754893   16.66770902 16.88853899 16.44579999 16.90944601
 16.57014299 16.79042901 16.604106   16.55295098 16.73886401 16.521018
 16.578865   16.644374   16.710392   16.74890099 16.702933   16.684998
 16.62932799 16.979582   16.56127401 16.42281801 16.633155   16.874639
 16.56423599 16.70959999 16.782861   16.64888201]",5.2416757150786,FALSE,16.67317412425,-10.2478664608393,17.1888898801975,120.803028858146,400.082069158874,42.9769028647173,-37.6946431173094,1.37197324046818,-1.30524322329945,-0.135934945593743,FALSE,544.241324839422,13.0617917961461,9.31203128867603
"69","P5",4,769,793,NA,"Dynamic","4",68,"nan","nan",400,130,499.886304207054,185.840640695014,503.771506284161,191.292885788816,202.097853319031,511.470991829882,507.50845533409,196.537082028524,0,8,"[16.64888201 16.65078799 16.627392   16.71192399 16.62636301 17.02489299
 16.19251902 16.73538398 16.59599799 16.93677602 16.641469   16.72659698
 16.43917902 16.93868998 16.590877   16.930037   16.32214201 16.641653
 16.73745899 16.68824401 16.782864   16.63294199 16.40510402 16.72640498
 16.697165   16.66390902 16.73022899 16.715882   16.63425    16.84587999
 16.61622903 16.49061299 16.52326901 16.65476698 16.900213   16.564794
 16.88414    16.26717602 16.745845   16.86760399]",4.31138391507557,FALSE,16.66891365,-11.5846876228282,-16.2572126240176,-125.473199933767,399.1964529292,-99.8863042070537,-55.8406406950135,2.74644856691532,2.48261096722619,0.259125858647774,FALSE,533.313285853372,12.7995188604809,-7.94624166944754
"70","P5",4,770,860,NA,"Dynamic","1",69,"nan","nan",246,-213,186.265202959953,-131.699662645571,181.021558542727,-135.86343354307,-144.148615844525,170.587615131764,175.870980357325,-139.953304222176,0,8,"[16.86760399 16.65256801 16.52929399 17.01046401 16.47216501 16.57577898
 16.470998   17.26454799 16.47663602 16.42046898 16.786619   16.398937
 16.76812401 16.72329198 17.05939401 16.34275899 16.55324601 16.65976801
 16.82382199 16.414785   16.80861801 16.93719398 16.53030602 16.60737599
 16.68381499 16.67338502 16.86303099 16.55555001 16.640688   16.52387899
 16.654804   16.59724399 16.83214202 16.74346899 17.44843798 15.82284301
 16.81929899 16.47089102 16.727498   16.55981198]",4.27267728708102,FALSE,16.669288824,15.6775878281888,12.4489531989545,38.4517010953276,400.318434207306,59.734797040047,-81.3003373544292,2.42126469409338,-0.090641451080229,-0.00943430730543646,FALSE,228.121737181422,5.47492169235412,2.69213339429208
"71","P5",4,771,99,NA,"Static","1",70,"nan","nan",-329,105,-329.991950175548,91.8479876810754,-334.776153309443,96.4667613731923,105.722657066648,-344.363565063179,-339.499642970282,101.026920958787,1,9,"[16.55981198 16.83750999 16.40550702 16.602583   16.66571799 16.93065799
 16.352604   16.80142901 16.77668901 16.55790099 16.53846799 16.66664603
 16.81934099 16.689863   16.491143   16.70580599 17.02859701 16.432025
 16.66039499 17.88301099 22.047017   15.71935602 12.94311098 14.79671602
 16.69557099 16.49090901 16.78211    16.814384   16.50172099 16.87506301
 16.28718799 17.07654999 16.63502899 16.46302902 16.92900798 16.40443702
 16.88473899 16.43053102 16.64224299 16.846724  ]",5.24250198408845,TRUE,16.6667785495,14.371614887631,-13.8746693855727,-43.9920818433167,399.521918033577,0.991950175547629,13.1520123189246,0.316544800109301,-0.202108882523945,-0.0210782013661387,FALSE,342.535749990748,8.22085799977795,-8.4415652450908
"72","P5",4,772,993,NA,"Dynamic","1",71,"nan","nan",-387,-182,-405.349367851179,-187.82367613206,-401.036049719709,-192.773814641836,-202.810345692056,-392.290688095891,-396.686077161547,-197.766019255616,0,9,"[16.64224299 16.846724   16.563607   16.56192899 16.80994401 16.40229498
 17.35271601 16.23351302 16.69389798 16.586802   16.567204   16.455248
 17.059962   16.40734702 17.12094    16.10943399 16.74095099 16.74456702
 16.800488   16.63644798 16.76069602 16.596728   16.553466   16.90756599
 16.381622   16.79456999 16.75473599 16.49735702 16.77329998 16.528843
 16.911727   16.567051   16.501231   17.001959   16.611901   16.515033
 16.73606501 16.54676499 16.54494501 16.82747499]",12.2728559020616,FALSE,16.66623239925,-13.0586797552883,14.9866695599962,131.067363917828,397.567590869471,18.3493678511791,5.82367613205969,0.462032417083378,-0.183932471363892,-0.0192768554316382,FALSE,446.750314306673,10.7220075433602,2.67930071106561
"73","P5",4,773,330,NA,"Dynamic","1",72,"nan","nan",313,-338,292.723377919417,-375.918872981342,291.073019045284,-369.445592955007,-356.506762834347,287.774272038565,289.436244982276,-363.025597270578,0,9,"[16.82747499 16.80227998 16.73175202 16.47210598 16.600484   16.789432
 16.55892    16.69341698 16.653233   16.747874   16.73750801 16.57720099
 16.516637   17.33120802 16.32015698 16.61109101 16.49968    16.71169899
 16.688492   16.45142102 16.88182799 16.67470101 16.59642399 16.97927699
 16.37848702 16.473105   17.67352998 16.06921302 16.56357001 16.40516298
 16.78622302 16.55424997 17.165567   16.99470403 16.01692298 16.62744902
 16.79677499 16.551231   16.69256898 16.503252  ]",5.18699711305089,FALSE,16.66765769875,4.94910588085219,-19.4121101469955,-75.6971702165903,400.63746538719,20.276622080583,37.9188729813422,1.03199506915304,-0.761621898583663,-0.0792093813384382,FALSE,476.447242666086,11.4347338239861,8.79677219342802
"74","P5",4,774,692,NA,"Static","1",73,"nan","nan",184,-212,168.706078218482,-197.039984492952,166.021086188457,-203.080385559638,-215.286777994654,160.595276537485,163.277298702752,-209.253058204504,0,9,"[16.503252   16.36086902 16.63236198 16.55130502 17.00330101 16.512776
 16.61240999 16.64113    16.70629199 16.775531   16.49932802 17.04834698
 16.363312   16.870147   16.46381302 16.52170398 16.96683702 16.56533399
 16.48999    16.94884701 16.607456   16.67982998 16.44471101 17.02439299
 16.52067102 16.59452199 16.56831399 16.83289302 16.86643698 16.435422
 16.73300701 16.43556898 17.01531102 16.399449   16.90950498 16.613279
 16.50740701 16.87820099 16.53498202 16.49420598]",5.27340274007292,FALSE,16.6533113,8.11080168099755,18.2467935017017,66.0345856659114,399.685060559199,15.2939217815178,-14.960015507048,0.513457610596875,-0.178995869237043,-0.0186600950452724,FALSE,259.396407679142,6.2255137842994,-4.1275178827425
"75","P5",4,775,78,NA,"Dynamic","4",74,"nan","nan",202,-101,253.619961967704,-68.0230283998795,259.506893380131,-71.4454634683012,-78.1307259962301,271.006215117192,265.135659436865,-74.7178111474069,0,9,"[16.49420598 16.708057   16.813255   16.51093899 16.472171   17.797885
 15.42630501 17.25022699 16.50320902 16.47557601 16.576447   16.957991
 16.678413   16.44623    16.75159199 16.95736    16.49409099 16.44541501
 16.70645701 16.779331   16.702922   16.5315     16.91070499 16.42088901
 16.83704701 16.51867598 17.00296102 16.52296199 16.33301901 16.81056898
 16.75151801 16.516706   16.64128699 16.89661402 16.45896299 16.760461
 16.81523601 16.45971698 16.89648302 16.48569398]",4.28784157405607,FALSE,16.66297714975,-17.3862531494881,10.1076975963507,149.827930955216,402.30658686894,-51.6199619677044,-32.9769716001205,1.47010552361739,0.673255357446281,0.0697286782664595,FALSE,262.583734266216,6.30200962238918,-9.2659918049858
"76","P5",4,776,706,NA,"Static","1",75,"nan","nan",223,368,267.516348896671,393.397165482328,270.788719835857,398.489116537055,386.934095011805,277.243220880448,274.061741122903,392.629665719224,0,9,"[16.48569398 16.54394    16.56065899 16.772034   16.782324   16.67127601
 16.65155898 16.70371499 16.499858   16.91300402 16.49661199 16.784548
 16.89654202 16.21681498 16.72389    16.594863   17.10230799 16.290792
 16.53700901 16.78304799 16.79596299 16.39349401 17.089537   16.46081402
 16.72295999 16.41863599 16.80348802 16.72285199 16.503761   16.72052301
 16.85517299 16.64922401 16.383587   17.103636   16.377511   17.024884
 16.402943   16.754176   16.72666101 16.32990499]",4.79295356411603,FALSE,16.65625544925,-9.72687198377707,6.46307047052272,146.397743563669,233.712531329874,-44.5163488966708,-25.3971654823277,1.2300371897504,0.55253358044009,0.0985066243018106,FALSE,475.737665879564,11.4177039811095,-0.102886575116184
"77","P5",4,777,977,NA,"Static","4",76,"nan","nan",221,275,207.476679499954,336.212501376077,204.347711016963,330.331757758813,318.427987510368,198.01406949809,201.224391956079,324.461631954791,0,9,"[16.32990499 16.710806   16.86907199 16.473678   16.61544101 16.57975299
 17.659392   15.93655601 16.443562   16.90991101 16.38217899 16.91241801
 16.60295698 16.64527602 16.746854   16.72923198 16.532954   16.82374801
 16.52546501 16.59146399 16.82360799 16.59191301 16.73193098 16.47397201
 16.81472    16.439573   16.84779601 16.909684   16.42194501 16.547929
 16.66204698 16.82755901 16.569094   16.79883301 16.52050199 16.60191899
 16.997803   16.70920101 16.59278199 16.47012401]",4.99257753608981,FALSE,16.65933894975,9.46261000186334,17.7845138657087,61.9838873762638,403.081636289137,13.5233205000462,-61.2125013760769,1.50452447660661,-1.14449220175296,-0.118306493721865,FALSE,395.076471860683,9.4818353246564,9.58039211040077
"78","P5",4,778,316,NA,"Static","4",77,"nan","nan",-279,-132,-263.055029015455,-81.8868021229866,-256.816219718248,-84.2690727018486,-89.032580067467,-244.341308470286,-250.600125912273,-86.6426694386569,1,10,"[16.47012401 16.45794499 16.809152   16.68702599 16.618302   16.71121601
 16.583588   16.655663   16.56453099 16.73030501 16.751819   16.941782
 16.28762999 16.74070701 16.76172798 16.38853003 16.90458099 16.72474699
 16.48214599 16.79584701 16.69167701 16.56922599 16.771316   16.47929099
 18.97177999 14.18256    17.08956002 16.39178299 16.81294301 16.69033198
 16.59399201 17.04680201 16.289828   16.62904798 16.71218002 16.66082299
 16.62691101 16.74332499 16.58588101 16.730673  ]",4.87524466408649,TRUE,16.65843249975,-18.7137205451693,7.1457779444804,159.100793721154,400.830270079123,-15.9449709845447,-50.1131978770134,1.26212956065033,-0.071536592896664,-0.00743629309758955,FALSE,275.505710743446,6.6121370578427,7.54524883935254
"79","P5",4,779,537,NA,"Static","1",78,"nan","nan",130,212,188.271718233474,166.997042722569,190.102821745813,173.378093135205,186.245997867057,193.79539021452,191.953214763613,179.826363836567,0,10,"[16.730673   16.60421898 16.52187802 16.66157998 16.72395199 16.54184301
 16.61042101 16.847994   16.72401998 16.586563   16.63836802 16.66996599
 16.654395   17.81397301 15.54096199 16.893753   16.27065701 16.99267398
 16.59668403 16.655677   16.570301   16.96871099 16.060383   16.91120901
 16.724671   17.38026799 15.98242999 16.80162601 17.847554   15.03139199
 17.19352099 16.20499001 17.012653   16.80763898 16.45003102 16.71614399
 16.686944   16.68093301 16.667163   16.53151799]",4.15919750410831,FALSE,16.66275832425,-5.52367198104568,-19.2489551444881,-106.011339090764,400.610223288782,-58.2717182334742,45.0029572774313,1.76703564263066,-0.652421178479582,-0.0678570195908023,FALSE,251.662973368488,6.0399113608437,-8.10414451126769
"80","P5",4,780,175,NA,"Dynamic","1",79,"nan","nan",266,-144,342.101026303056,-99.7296545877114,335.49087276262,-100.683459871688,-102.601152024314,322.200697309503,328.953897346296,-101.626705993759,0,10,"[16.667163   16.53151799 16.43051999 16.808407   16.71124701 16.89686399
 16.23802201 16.700404   16.55517    16.91702398 16.59040802 16.61611898
 16.64177701 16.632749   16.67468098 16.66248901 16.73015201 16.68180598
 16.715901   16.60383699 16.73539402 16.34139699 16.93556001 16.56095599
 16.77227102 16.85917698 16.72027202 16.278917   16.82701899 16.533663
 16.57732402 16.85737597 16.59533201 16.57981399 16.81528802 16.50829599
 16.937779   16.52876299 16.63640802 16.71288398]",4.42515428108163,FALSE,16.658003699,19.9003289935525,2.87149743660306,8.21076361621567,402.33775828703,-76.1010263030559,-44.2703454122886,2.11298563645989,-1.95944184597424,-0.202922565847479,FALSE,356.341291744008,8.5521910018562,8.73817783495429
"81","P5",4,781,176,NA,"Static","4",80,"nan","nan",127,-198,146.988227403026,-216.147534326783,144.370736792765,-210.084303439571,-197.683816817086,139.017459323904,141.730582297599,-203.968573274446,0,10,"[16.71288398 16.72898    16.674713   16.69858099 16.49253001 17.04723801
 16.32296899 16.579763   16.885558   16.58786801 16.626775   16.82500998
 16.746888   16.65497801 16.58352601 16.40459397 16.88198201 16.674941
 16.772356   16.56179602 16.693527   16.44434198 16.75929601 16.711932
 16.8368     16.679338   16.606227   16.78306601 16.30635801 16.71484398
 16.809839   16.70966702 16.96449798 16.21085202 16.432681   16.69844499
 17.080202   16.61133001 16.56617501 16.78181   ]",3.94413975207135,FALSE,16.67162897525,7.97076807912171,-18.4637175096969,-66.650191610679,402.095152738644,-19.9882274030255,18.147534326783,0.647938769043443,-0.590004008374663,-0.0611385145568347,FALSE,261.39107787113,6.27338586890713,9.42783731401509
"82","P5",4,782,982,NA,"Dynamic","4",81,"nan","nan",382,173,512.864777267198,207.519888826117,507.219551393807,203.78406353497,196.433568346799,496.112178220649,501.661957673655,200.106230328059,0,10,"[16.78181    16.642081   16.726859   16.42390998 16.682377   16.600267
 16.81149    16.58432602 16.64091699 16.580875   16.89609501 16.609788
 16.91405301 16.30345799 16.93784099 16.43744801 16.59717099 16.90150899
 16.58421702 16.886442   16.24052998 16.773888   16.87704702 16.67687201
 16.56384597 16.68923502 16.54831998 16.73889701 16.54759698 16.80884801
 16.62342899 16.84502501 16.786341   16.24839599 16.79246701 16.52404599
 16.62862601 16.65137601 16.822634   16.65786098]",4.69037171409582,FALSE,16.66470537425,16.752599046549,11.0863204793182,33.4952838532627,401.821389340726,-130.864777267198,-34.5198888261172,3.2481863383381,-3.07638386975683,-0.319004076538033,FALSE,553.258333890902,13.2782000133817,9.40842434178997
"83","P5",4,783,92,NA,"Dynamic","4",82,"nan","nan",403,-234,481.708575742799,-165.659986423652,480.371588526912,-172.251616164427,-185.232209303323,477.738721123274,479.038700144143,-178.823037791045,0,10,"[16.822634   16.65786098 16.60055699 16.72680999 16.69015602 17.93759098
 15.245544   16.589431   16.66479601 17.08323898 16.32806502 16.84686998
 16.59505002 16.64889898 16.60318201 16.74324999 16.54512199 16.821736
 16.48629902 16.80450898 17.549585   15.803738   16.55915301 16.86644601
 16.40733    16.85253301 16.543109   16.90443599 16.58015398 16.53566401
 16.594049   16.72320001 16.664239   16.820163   16.35090899 16.92883301
 16.47066799 16.63676402 16.822067   16.748111  ]",4.4751503620646,FALSE,16.67006879925,3.96985461952562,19.572222879671,78.5341840144245,399.333884669977,-78.7085757427992,-68.340013576348,2.50169320145765,-1.98293115086558,-0.206899876163396,FALSE,509.398059523238,12.2255534285577,-1.25509814574774
"84","P5",4,784,151,NA,"Static","1",83,"nan","nan",191,-293,190.426407449357,-179.585796450558,192.174636850915,-185.987647264548,-198.840293132136,195.684461438585,193.9632873126,-192.53751617985,0,10,"[16.748111   16.58987801 16.52502801 16.66325598 16.933746   16.47197601
 16.73493101 16.68424401 16.80080598 16.575338   16.88012801 16.56853
 16.325245   16.753395   16.81236699 16.70494201 16.42432399 17.08918202
 16.60590299 16.48985501 16.712799   16.621213   16.628171   16.801889
 16.394915   16.843783   16.577901   16.61222699 16.83817402 16.52543098
 17.036467   16.752166   16.39568899 16.630239   16.73826401 16.51835101
 16.47199001 16.85207299 16.68249001 16.93346997]",3.6478333240666,FALSE,16.67372217525,-5.25805398922762,19.2544966815778,105.27402745273,399.021650091696,0.573592550642928,-113.414203549442,2.72197569630901,-2.62942010484865,-0.274569490177246,FALSE,261.750405808377,6.28200973940105,-8.19372594534615
"85","P5",4,785,228,NA,"Dynamic","4",84,"nan","nan",87,181,106.091920475846,207.20979683957,111.220415472599,211.492627498974,219.974696985072,121.377308046917,116.3504679777,215.776758841036,0,10,"[16.93346997 16.38527599 16.931769   16.600503   16.762446   16.63828301
 16.62440598 16.75061299 16.45290901 16.79296    16.75407201 16.65925098
 16.549625   16.726286   16.60973299 16.839435   16.43648301 16.78414701
 16.681429   16.44998498 16.897091   16.769974   16.59912401 16.38527602
 16.67835799 16.86658399 16.33976601 16.681762   16.670093   16.848901
 16.489876   17.58587701 15.885698   16.611789   16.80110799 16.688984
 16.43320901 16.71248997 16.69496601 16.723154  ]",4.34418430310325,FALSE,16.6681790235,-15.2853875710719,-12.7649001455022,-140.134581718594,398.253077937994,-19.0919204758455,-26.2097968395696,0.77822747935848,0.754900089646409,0.0789803573265314,FALSE,232.79045404945,5.58697089718679,-8.83540403107217
"86","P5",4,786,970,NA,"Static","4",85,"nan","nan",340,-258,516.928848662883,-175.538039262021,512.041997322685,-180.205568136026,-189.550855045866,502.257584822481,507.234132550453,-184.797655368579,0,10,"[16.723154   16.95707301 16.559435   16.72980198 16.62068401 16.76472
 16.54803602 16.54411099 16.60452099 16.85496402 16.56419199 16.96616001
 16.79630298 16.52555401 16.53354801 17.024531   16.05708399 17.055378
 16.801658   16.511261   16.58731699 16.611853   16.832475   16.76004101
 16.49002801 16.71711498 16.63458502 16.585326   16.812466   16.48352001
 16.77432199 16.65674799 16.69373602 16.58020099 16.77336099 16.20434201
 17.053686   16.624276   16.82361899 16.55991602]",4.95892760806601,FALSE,16.67502755075,14.6712638404022,14.0128157838449,43.6849963199349,405.557558733782,-176.928848662883,-82.461960737979,4.68484625743097,-4.43763970791247,-0.455919635855503,FALSE,545.92035848454,13.102088603629,4.44149489845758
"87","P5",4,787,958,NA,"Dynamic","1",86,"nan","nan",253,-183,242.152016057436,-55.0369114831429,238.11243832909,-60.435060350087,-71.1099768013651,230.124115700087,234.098728204394,-65.7986419467059,0,10,"[16.55991602 16.36197401 16.678774   16.89216201 16.48358098 16.692904
 16.69893201 16.39140799 16.35879301 16.868062   16.84046999 16.288643
 16.86387099 16.49101201 16.756267   16.85609701 16.464947   16.91644601
 16.54682998 16.60168701 16.567146   16.650676   16.587344   16.71902402
 16.82279399 16.59886201 16.64501798 16.750407   16.58875801 16.75070901
 16.79391199 16.80826402 16.28248798 16.704954   16.88533602 16.436187
 16.69036099 16.70736799 16.73951102 16.57912499]",4.37306934807566,FALSE,16.64802550125,12.0279003573493,16.0730653182222,53.1915185507386,401.953653116361,10.8479839425637,-127.963088516857,3.08212993372332,-2.30287745208706,-0.238717141706178,FALSE,248.327728025455,5.95986547261091,3.9052356414666
"88","P5",4,788,544,NA,"Dynamic","1",87,"nan","nan",-634,-214,-602.775415559062,-195.763226304267,-597.208892932196,-192.197672205042,-185.028243035416,-586.016021197869,-591.826152711269,-188.749837219667,1,11,"[16.57912499 16.78736199 16.69243601 16.58975301 16.74027299 16.94206402
 21.74266599 13.82217399 14.20009602 16.34534699 16.85589299 16.61039502
 16.87496901 16.49247599 16.475087   16.96530401 16.64703898 16.64974701
 16.685932   16.67465101 16.986481   16.53099299 16.77236002 16.471979
 16.63552099 16.746309   16.70490199 16.48238799 16.826231   16.630136
 16.89465399 16.386654   16.63063403 16.77750799 16.35991101 17.04655599
 17.347229   15.94508198 16.530669   16.48355802]",5.79145538705052,TRUE,16.66406360025,-16.7593943611932,-10.7349832688511,-147.359004998579,398.116027532316,-31.2245844409375,-18.2367736957325,0.867842982850604,0.86711072467121,0.090751466982912,FALSE,633.767656460517,15.2104237550524,9.28794506745691
"89","P5",4,789,480,NA,"Dynamic","4",88,"nan","nan",-622,229,-599.099048985382,236.566329871675,-592.983043294594,234.078519060217,229.06495459793,-580.657753669972,-586.859747267509,231.587742754878,0,11,"[16.48355802 16.46098899 16.674149   16.56074001 17.026877   16.53631698
 16.57052501 16.67422501 16.62683699 16.88999898 16.61254201 16.57855802
 16.80249398 16.603425   16.40758701 16.74250001 16.63309598 16.73557001
 16.88882001 16.30555    17.043206   16.59002298 16.71248802 16.509774
 16.72896199 16.41965201 16.820669   16.84576599 16.43565501 16.726617
 16.79058501 16.497262   16.744361   16.793394   16.51437901 16.611278
 16.77183699 16.513076   16.60894501 16.97078999]",5.70215598106734,FALSE,16.66157692575,-18.4412953154102,7.50137527374466,157.864957535639,398.293456800514,-22.9009510146178,-7.56632987167481,0.578844429305605,0.440692543663982,0.0461021616243355,FALSE,644.114352366211,15.4587444567891,9.59949540050773
"90","P5",4,790,140,NA,"Static","4",89,"nan","nan",-345,-268,-357.470758008143,-305.208104773894,-364.07481311941,-305.20554774618,-305.200343679496,-377.51539610747,-370.698377423166,-305.202983164692,0,11,"[16.97078999 16.73432998 16.77573702 16.75811599 16.436518   16.896371
 16.58444499 16.458158   16.97928802 16.39730099 16.760556   16.52885799
 17.090037   16.54748002 16.50669999 16.64545701 16.89400099 16.50035201
 16.77182899 16.54417801 16.64080899 16.899921   16.610872   16.25657702
 16.64213298 16.77541703 16.76268398 16.48254102 16.89981599 16.63139299
 16.87103699 16.60588902 16.636368   16.72276098 16.362547   16.720908
 16.923716   16.55686801 16.619934   16.875517  ]",4.93771512206877,FALSE,16.68195524975,20.0446380993268,-0.00776109439789252,-0.0221843831241474,400.525384100051,12.4707580081435,37.2081047738937,0.941816654614756,0.298952410751579,0.0311000274700963,FALSE,470.039711142142,11.2809530674114,-7.29849940537433
"91","P5",4,791,737,NA,"Dynamic","1",90,"nan","nan",-372,-164,-349.624601886342,-80.0780958629103,-343.087290874496,-80.4581442479949,-81.2337778311429,-329.745416094146,-336.497288833315,-80.8412558406537,0,11,"[16.619934   16.875517   16.63913499 16.69334201 16.79681399 16.50174501
 16.745806   16.599694   16.52273801 17.11384498 16.51845902 16.40443
 16.79083999 16.666568   16.60097399 16.76099401 17.17497801 16.01773198
 17.045632   16.483502   16.63666801 16.670832   16.67393401 16.78879099
 16.49669799 16.53690301 16.69818899 16.82729699 16.65602802 16.76563799
 16.47204999 16.715707   16.48246803 16.880407   16.74903199 16.53121901
 16.856998   16.575763   16.49101501 16.91949798]",3.84532177305664,FALSE,16.67494535,-19.879185792196,1.15568196823257,176.672838907689,398.057284627519,-22.375398113658,-83.9219041370897,2.08448593048981,0.419209993078425,0.0438808275077271,FALSE,358.677938659757,8.60827052783418,9.2175241021302
"92","P5",4,792,805,NA,"Dynamic","1",91,"nan","nan",389,-330,428.02486305548,-362.019479805269,422.443461504658,-358.609803439216,-351.642086762065,411.037797009715,416.631989781043,-355.059577280505,1,12,"[16.91949798 16.74318599 16.432034   16.858157   16.64715301 16.74739699
 16.61178001 16.69557899 16.49206699 16.646342   16.70232401 16.643412
 16.863344   16.55909    16.62051299 16.73943401 16.75439    16.52711298
 16.594974   16.84967702 16.67078098 16.510035   16.624454   16.68654999
 16.82520402 20.38366999 16.13974699 13.76197301 16.659304   16.43331398
 16.51684902 16.53999498 16.84975001 16.60597601 16.756734   16.61513699
 16.51212401 16.95115599 16.42043999 16.97643401]",5.34487433909089,TRUE,16.6771772735,16.9870660457655,-10.3773930432044,-31.4207442104816,397.870024682295,-39.0248630554801,32.019479805269,1.21150968858504,-1.19987257714618,-0.125655836360996,FALSE,560.591997046105,13.4542079291065,9.48690300917211
"93","P5",4,793,189,NA,"Static","1",92,"nan","nan",66,-118,57.8517723584114,-111.275010294351,60.8276749616943,-117.043744077451,-128.96318967383,66.9765302414905,63.9850227831301,-123.164206159247,0,12,"[16.97643401 16.59592002 16.68441098 16.80325202 16.64806    16.91462199
 16.45562402 16.549461   16.813425   16.66076199 16.76317101 16.37504698
 16.73343001 16.46535701 16.944509   16.78704598 16.398223   16.96769003
 16.63471598 16.507764   16.83967101 16.52489501 16.83520598 16.63289202
 16.362258   16.992466   16.555271   16.51230501 16.59369498 16.88940101
 16.468266   16.80907901 16.55409299 16.67283199 16.68242202 16.85668298
 16.41710801 17.01370798 16.41885101 16.69940201]",4.10984248208115,FALSE,16.67523570125,-9.12475788307911,17.6881793794792,117.287740912288,397.857196961706,8.14822764158858,-6.72498970564948,0.253559858294601,-0.2330935973199,-0.0244113548676042,FALSE,125.41513258382,3.00996318201169,-9.59995149401231
"94","P5",4,794,422,NA,"Static","4",93,"nan","nan",339,-159,361.455274247487,-109.561474705608,361.943608090512,-116.349532371075,-129.543128666053,362.892757302196,362.423819788832,-123.02468861181,0,12,"[16.69940201 16.019559   16.76659999 17.22254202 16.08238299 17.05235199
 16.115862   16.82201299 16.645047   16.40638302 17.05026199 16.70203602
 16.420239   16.68754299 16.87545999 17.059167   16.22558702 16.88893
 16.07151699 17.00421199 16.83246702 16.572311   17.914261   15.32740798
 16.90649401 16.57537499 16.35187701 16.70003499 16.749081   16.49490601
 16.78047501 16.96163998 16.45165702 16.58387799 16.70035298 16.77169802
 16.535651   16.672561   16.90178199 16.327333  ]",4.70856916203047,FALSE,16.648208475,-1.43748305470825,19.9816539604453,94.114777855575,401.110098055984,-22.4552742474874,-49.4385252943919,1.30318168491309,-1.1447955958097,-0.118919510436791,FALSE,377.695157529182,9.06468378070038,-3.43680785222947
"95","P5",4,795,689,NA,"Static","4",94,"nan","nan",-370,168,-401.454310827484,182.317107137135,-401.507775710868,186.311562005427,177.873797043063,-411.769837296142,-406.702960855185,182.039929953772,2,14,"[16.327333   16.79437098 16.875375   16.39860999 16.98341401 16.246268
 16.58033399 17.03780401 16.54936399 16.38225399 17.088497   18.49566301
 17.231796   14.49401802 16.491922   18.76001098 14.86971602 16.15409099
 16.55808202 16.776612   16.66852398 16.465847   16.90036399 16.58842003
 16.76175499 16.60407399 16.76360302 16.42929198 16.82941502 16.86593398
 16.278464   17.11753401 16.22224101 16.59309797 16.82370302 16.82619099
 16.527689   16.75901201 16.88774698 16.16764002]",5.45710010908078,TRUE,16.65440204975,10.3155264686579,4.44331009407207,23.3034789058334,224.801212078807,31.4543108274838,-14.3171071371347,0.829425981273254,0.55738744143557,0.103311172176155,FALSE,440.913927242975,10.5819342538314,-6.45741789399044
"96","P5",4,796,997,NA,"Static","4",95,"nan","nan",237,-327,270.243662701873,-329.20272560749,273.398934199855,-323.473999286807,-311.71832749634,279.87373052695,276.694225116549,-317.491053026605,0,14,"[16.16764002 16.77628301 16.66283299 16.86106098 16.56186301 16.57449501
 16.70485598 16.848114   16.56424801 16.757782   16.677209   16.473164
 16.647112   16.683227   16.934671   16.44208899 16.89241102 16.41347498
 16.919121   16.42069302 16.95457898 16.21259001 16.90719699 17.110213
 16.058999   16.76203901 16.970825   16.360029   17.04038301 16.06273098
 16.81480301 16.72471    16.78196399 16.77420601 16.569236   16.60587898
 16.469511   16.983073   16.459648   16.748116  ]",4.52697219810216,FALSE,16.65882694975,-9.63006782507665,-17.4843981111491,-118.84512166636,399.408307038515,-33.243662701873,2.20272560748964,0.79959741828258,0.338610398593398,0.0353241691758248,FALSE,425.917916713918,10.222030001134,3.56080388704905
"97","P5",4,797,554,NA,"Dynamic","1",96,"nan","nan",277,-238,352.423214535411,-188.226707520901,351.163669396309,-194.813788166041,-207.971251958001,348.64777192141,349.904527528759,-201.398759809969,0,14,"[16.748116   16.41378301 16.69331599 16.74572699 16.51756201 16.999596
 16.679516   16.519956   16.74070201 16.72344998 16.50812902 16.64444301
 16.73242898 16.55623299 16.85708502 16.49809099 16.81370501 16.32282301
 16.77132698 16.96911902 16.43125399 16.80871099 16.56139499 16.62037001
 16.829587   16.44038202 16.944598   16.44241798 16.79270901 16.699372
 16.47114599 16.789791   16.566768   16.86620701 16.62948099 16.613218
 16.725911   16.746029   16.71820102 16.35219698]",4.9063781760924,FALSE,16.662621325,3.77544261400089,19.7445444370999,79.174888310954,402.142880378873,-75.4232145354109,-49.7732924790986,2.16878771542933,-1.51327077795612,-0.156792404287006,FALSE,399.539003812683,9.58893609150439,-2.85179808041041
"98","P5",4,798,952,NA,"Static","1",97,"nan","nan",-130,323,-83.4474833587548,341.144480205912,-83.4131671846128,334.272128674511,321.042368409937,-83.3471061347636,-83.3800383345178,327.637557386315,0,14,"[16.35219698 16.53506502 16.70601798 16.42652601 16.93038101 16.212883
 17.20517001 16.61402799 16.64637    16.65916399 16.56856702 16.73169099
 16.49329899 16.85761602 16.709672   16.49941498 16.842112   16.67588801
 16.34724598 16.834662   16.840992   16.40809601 16.629777   16.734679
 16.76627199 16.87084301 17.16444601 15.56041098 17.23704301 16.17744702
 16.79674399 16.83062699 16.53136901 16.722948   17.031514   16.432456
 16.50478499 16.68915301 17.00410098 16.496383  ]",3.84354737208923,FALSE,16.6569513995,-0.100377223991217,20.1021117959748,90.286096483469,402.281744569034,-46.5525166412452,-18.1444802059116,1.19912583381555,-0.429883274344127,-0.04452551809643,FALSE,351.202276265219,8.42885463036526,9.33634694105404
"99","P5",4,799,402,NA,"Static","4",98,"nan","nan",168,-126,238.757664503781,-146.411246701847,243.28111476122,-151.262444054653,-160.965824948778,252.328934837674,247.895854199122,-156.211544955723,0,14,"[16.496383   16.49384099 16.672547   16.69765302 16.90680999 16.23009599
 17.08247201 16.19327598 16.87441501 16.641683   16.54332699 16.80500101
 16.673003   16.902862   16.56372199 16.532148   16.76927001 16.34752
 17.051317   16.42003699 16.84121799 16.78811302 16.48700799 16.635468
 16.51443902 16.85134199 16.548277   16.76033801 16.550901   16.54597599
 16.87871601 16.66613601 16.50310098 16.991315   16.69663601 16.45557399
 16.399727   16.90433701 16.58621198 16.71829401]",5.60499819906545,FALSE,16.65551277475,-13.5712703338934,14.554578246931,132.997697526589,398.269111120096,-70.757664503781,20.4112467018466,1.7674278658268,1.51639036244205,0.158643816465511,FALSE,280.074053635979,6.72177728726349,-9.25153277564005
"100","P5",4,800,370,NA,"Dynamic","4",99,"nan","nan",-325,-169,-271.630051679444,-117.740261014503,-266.40990104397,-121.913314682245,-130.400096766787,-255.793627106684,-261.145682410124,-126.121596858718,0,14,"[16.71829401 16.67295801 16.95244401 16.57217799 16.29405099 16.96521402
 16.582891   16.74226398 16.65850202 16.598499   16.46195998 17.09762702
 16.19949398 16.91643102 16.63639597 16.86240002 16.83273498 16.300471
 16.71403501 16.80460499 16.65405001 16.818968   16.51210999 16.346891
 16.95922302 16.99032899 16.463771   16.160242   16.954808   16.73544801
 16.416892   16.739107   16.96622698 16.369088   16.993678   16.16645101
 17.03322202 16.69690799 16.73089401 16.73131   ]",5.58597700909013,FALSE,16.67557665075,-15.8364245727597,12.6598357522835,141.360722808167,405.277499054906,-53.3699483205563,-51.2597389854965,1.77598576609432,0.232308294365735,0.0238836656064333,FALSE,296.050087044643,7.10520208907143,4.49597709502739
"101","P5",4,901,583,NA,"Static","4",0,"nan","nan",167,-313,114.779383931812,-296.878365975557,113.373025976327,-290.223087642323,-277.400771109036,110.66348236877,112.03343314817,-283.883760524485,0,0,"[16.870294   16.460082   17.25719101 16.541759   16.59429699 16.60191201
 16.489271   17.01743    16.32944199 16.836268   16.363959   16.68569
 16.813214   16.86309201 16.45552499 16.95709401 16.633447   16.31409999
 16.70992    16.94540599 16.34933701 16.543227   17.03510201 16.41328599
 17.464965   16.25352399 17.04327401 15.962658   16.93981199 16.226395
 16.991428   16.329805   16.797184   16.692213   16.93825101 16.623184
 16.31562799 16.89007501 16.68701199]",14.4992647437757,FALSE,16.6727116151282,4.11590156304213,-19.4775948665205,-78.0680963862687,398.010058987502,52.2206160681883,-16.1216340244431,1.31166089362598,0.637676901402817,0.0667567823772473,FALSE,318.294001137444,7.63905602729865,9.47635699992396
"102","P5",4,902,581,NA,"Dynamic","4",1,"nan","nan",-548,-270,-596.198439466445,-330.531730551397,-589.687880134811,-329.650876662611,-327.861787357521,-576.464379371888,-582.951751167076,-328.739504060912,0,0,"[16.68701199 16.88942399 16.373855   16.824045   16.565629   16.781025
 16.58457599 16.81420501 16.448928   16.732936   16.494924   16.82183
 16.634985   16.7931     16.521219   16.64103899 17.04775701 16.33433299
 16.67379901 16.66646299 16.639129   16.968166   16.415269   16.60741601
 16.99481699 16.3269     16.69482999 17.09543401 16.623976   16.29381199
 16.857043   16.40180001 16.686606   16.96273799 16.805312   16.49538
 16.46816501 16.85230499 16.58656901 16.843437  ]",4.61554396488646,FALSE,16.67375469925,-19.7340600945574,-2.66994319387601,-172.294886056334,398.107843898287,48.1984394664449,60.5317305513972,1.8570448737269,-1.34109688475257,-0.140361557103525,FALSE,681.691868899377,16.3606048535851,8.94430749321546
"103","P5",4,903,352,NA,"Static","1",2,"nan","nan",109,-165,59.8347554958476,-136.507735603463,66.535008465499,-136.258083053056,-135.760297560115,79.8947306949938,73.1762799583503,-136.010628162375,0,0,"[16.843437   16.30234999 16.89344901 16.17482399 16.794512   17.006768
 16.68256101 16.487873   16.82485899 16.56964401 16.612885   16.848635
 16.526395   16.613317   16.69873499 16.963744   16.13841001 16.669063
 17.208883   16.59966599 16.61687001 16.494756   16.496353   16.75480501
 16.72607899 16.555879   16.75102201 16.587625   16.68976199 16.95404401
 16.323898   16.885982   16.738266   16.58103999 16.959973   16.368856
 16.80090901 16.63099999 16.750663   16.245355  ]",4.56910448957933,FALSE,16.659328675,-20.0599751991462,-0.747438043348183,-177.86613676697,401.654744409034,49.1652445041524,-28.4922643965369,1.36378939320368,-1.1536862656376,-0.119680550864551,FALSE,149.045495889117,3.57709190133881,-3.52389515609628
"104","P5",4,904,437,NA,"Dynamic","1",3,"nan","nan",-408,-200,-421.46041366895,-218.620281781526,-420.439659056668,-225.373929502529,-238.556196795714,-418.44727498576,-419.470492433831,-231.786254144359,1,1,"[16.245355   16.506887   16.76399799 16.92117    16.45368    18.495116
 15.055493   16.647506   16.40156801 16.705003   16.540556   16.607268
 16.764438   16.665866   16.583901   16.762085   16.806329   17.028077
 16.33131501 16.902184   16.361788   16.975522   16.622899   16.35729799
 16.960144   16.3454     16.91804301 16.30143399 16.815244   16.936682
 16.430178   16.94138799 16.239096   16.825229   16.978061   16.30123699
 16.95323101 16.360943   16.93315299 16.32014   ]",5.49867531689233,TRUE,16.6516226245,-3.01313868319085,19.9359150141879,98.5947035998108,403.610996376264,13.4604136689504,18.6202817815263,0.551424550363257,0.393590458819236,0.0406321993157815,FALSE,474.788066295096,11.3949135910823,-3.09724072154327
"105","P5",4,905,274,NA,"Static","1",4,"nan","nan",397,185,470.467764565229,169.387566788909,465.735291419539,164.905388166747,155.607273288078,455.917949747507,460.774947896752,160.207390943738,0,1,"[16.32014    16.667209   16.611998   16.73166599 16.71361001 16.644441
 16.968344   16.32850799 17.01381301 16.299642   16.894935   16.567657
 16.979654   16.11146699 16.758888   16.745763   16.729123   16.6419
 16.679084   16.967417   16.576101   16.39282099 16.70079801 16.60982899
 16.62548201 16.74163999 16.56096001 16.84275799 16.725826   16.56621
 16.531163   16.719554   16.732674   16.689018   16.95287701 16.240564
 16.74284099 16.91598201 16.44299499 16.82014701]",5.78473604957981,FALSE,16.66263747475,14.5498148177223,13.7802935008308,43.4440763667227,400.892924535338,-73.4677645652292,15.6124332110913,1.80259980266449,-1.02252330710829,-0.106275604254081,FALSE,500.032064249555,12.0007695419893,8.79418637992305
"106","P5",4,906,349,NA,"Static","4",5,"nan","nan",-277,255,-286.715562187153,371.709439632145,-284.155664310457,365.394986055623,353.016514458927,-279.137395861235,-281.701165886727,359.340519394522,0,1,"[16.82014701 16.744402   16.812755   16.64833599 16.51838599 16.503241
 16.689793   16.629398   16.66625201 16.789869   16.769949   16.542307
 16.86814601 16.44785699 16.890343   16.735578   16.301201   16.59471801
 17.14686499 16.459344   16.545823   16.586885   17.112492   17.120377
