"","participant","protocol","trial","trajectory_id","practice_trials.thisN","noise_present","no_targets","trials.thisN","mouse.x.firstBadClick","mouse.y.firstBadClick","mouse.x","mouse.y","obj0finalX","obj0finalY","obj0penultimateX","obj0penultimateY","obj0preantepenultimateY","obj0preantepenultimateX","obj0antepenultimateX","obj0antepenultimateY","timingHiccupsInLastFramesOfStimuli","win.nDroppedFrames","finalStimFrameTimes","line_orientation","RT","anyHiccupsLastFrames","avgDurLastFrames","dx","dy","finalDirection","finalSpeed","xErr","yErr","euclidean_dist","amountExtrapolation","temporal_error","isOutlier","eccentricity","eccentricity_deg","velocityToFovea"
"1","P4",4,901,973,NA,"Dynamic","1",0,"nan","nan",-459,150,-461.509512558873,110.631594492432,-455.078438442294,108.302408519684,103.768015641815,-442.558606615868,-448.80151408115,106.029052015165,0,0,"[16.225085   16.742586   16.58932801 17.671409   15.922497   16.388009
 16.665481   16.81056499 16.99698801 16.27407799 17.101434   16.60018
 16.80724201 16.123857   16.970335   16.344947   17.01726    16.56337001
 16.772811   16.786295   16.48101199 16.37568801 16.74232799 16.67921801
 16.919413   16.42371899 16.57931901 16.893105   16.932529   16.546602
 16.54380999 16.813868   16.73038201 16.44176499 16.465961   16.593579
 16.676745   16.978378   16.520315  ]","Upper/Lower",5.30137522240693,FALSE,16.6592690515385,-18.9509059430046,6.86357885061662,160.090787261725,403.28968284906,2.50951255887304,39.3684055075684,0.94675939243458,0.265118991926795,0.0273912900165881,FALSE,474.584428613357,11.3900262867206,9.53963252180103
"2","P4",4,902,934,NA,"Static","1",1,"nan","nan",-276,149,-311.943778509908,205.703146767629,-308.428741064484,211.479944316492,222.742116072921,-301.575990019326,-305.027388650367,217.06990590119,0,0,"[16.520315   16.33773001 16.854983   16.94764    16.562713   16.578215
 16.93597599 16.25506001 17.223952   16.50806599 16.68086099 16.402661
 16.47683601 16.666731   16.891277   16.634467   16.447652   17.011533
 16.651118   16.394395   17.244213   16.139306   16.739802   16.996056
 16.514135   16.574434   16.42417899 17.09545001 16.823186   16.59581299
 16.55914    16.278651   17.184236   16.514578   16.723792   16.56182599
 16.617898   16.503405   16.83085601 16.864848  ]","Upper/Lower",5.80382948898477,FALSE,16.66919962475,-10.3677884905813,-17.0389693052914,-121.319471374154,398.846648285572,35.9437785099076,-56.7031467676293,1.61125677362308,0.714157785785373,0.0746065550146439,FALSE,373.661217603785,8.96786922249084,-0.348822032403696
"3","P4",4,903,95,NA,"Dynamic","2",2,"nan","nan",243,-162,265.223776843954,-131.96411340192,260.796280931626,-137.076524516572,-147.22403894352,252.008239900099,256.322235365462,-142.242686322895,0,0,"[16.864848   16.913851   16.67200601 16.37960199 17.031697   16.265417
 16.644649   16.95203899 16.54781401 17.018072   16.63491099 16.336828
 17.055305   16.59216599 16.472958   16.32885201 16.78634899 16.596349
 17.14848301 16.51945799 16.84708001 16.151976   17.05262999 16.432249
 17.43166101 16.16657499 16.618037   16.684635   16.538415   16.431674
 17.04212    16.33320299 17.023252   16.38149201 16.94453    16.54899899
 16.49212501 16.92400199 16.93039    16.51345201]","Left/Right",5.02868536899041,FALSE,16.6812537745,13.2155369438548,15.2599255415999,49.106489997357,403.387328766082,-22.2237768439541,-30.0358865980797,0.896730297683156,-0.894092818116843,-0.0923525970324618,FALSE,296.240069925266,7.10976167820638,2.39399792773525
"4","P4",4,904,12,NA,"Static","2",3,"nan","nan",-169,-356,-153.255275448847,-337.67058019301,-158.051463731741,-333.610187055077,-324.750114702237,-168.517094462741,-163.240347977206,-329.217342416564,0,0,"[16.51345201 17.11555201 16.686259   16.585472   16.457914   16.809815
 16.29982301 17.096996   16.314422   16.91226699 16.30148801 17.02914599
 16.34183001 17.11947899 16.679704   16.78877001 16.34001899 16.64002301
 16.444333   16.96075899 16.33372701 17.040766   16.68226899 16.398896
 16.60751    17.094543   16.69250001 16.538528   17.05613799 16.121152
 16.456767   16.69050001 16.981079   16.668821   16.328653   16.63765599
 17.13750701 17.031233   15.81094699 17.23399201]","Left/Right",5.03956675571681,FALSE,16.67451767575,15.2618190138938,-12.9204654907728,-40.2508353721352,399.742465160726,-15.744724551153,-18.3294198069902,0.579918661048147,-0.00416292104715076,-0.000433916980928059,FALSE,370.821520654864,8.89971649571674,2.62024554303667
"5","P4",4,905,89,NA,"Dynamic","1",4,"nan","nan",228,-131,254.003511004534,-91.8449679254824,249.373605224057,-96.6768819553286,-106.265175518238,240.186170282621,245.034886048734,-101.204904565034,0,0,"[17.23399201 17.133827   16.553166   16.628311   16.36754601 16.79669699
 16.90383301 16.393033   16.700539   16.89851499 16.68217001 16.59890599
 16.74161501 16.323806   16.599272   17.14749099 16.661948   16.21741701
 16.83851499 16.636186   16.58864101 17.10014799 16.711681   16.213093
 17.022983   16.87442501 15.99899099 17.168085   16.505718   16.762724
 16.29336301 17.026402   16.627901   16.573827   16.51759099 16.96339801
 16.72245299 16.49157601 16.73020799 16.70484401]","Left/Right",5.1100096879818,FALSE,16.6913709255,13.8173407219128,14.4202075927557,46.2230693735182,398.839058638536,-26.0035110045337,-39.1550320745176,1.12807636881551,-1.11028917058437,-0.115991771047368,FALSE,270.098651858655,6.48236764460773,3.88897307193382
"6","P4",4,906,389,NA,"Dynamic","1",5,"nan","nan",-480,-212,-489.843036950155,-218.357969359635,-493.679745201794,-212.867065772475,-202.23881511478,-501.10611799301,-497.392789551096,-207.553143733147,0,0,"[16.70484401 16.22833    16.663677   17.07863501 16.330923   16.92179899
 16.36413601 16.69812799 17.096493   16.667894   16.839605   16.526541
 16.472545   16.44729399 16.983807   16.296456   17.11820801 16.24168199
 16.947574   16.373509   16.822313   16.931669   16.198328   16.755791
 16.922599   16.52690901 16.519318   17.160198   16.138433   16.762849
 16.68100699 16.583188   16.78157301 16.80732    16.51709399 17.23650801
 16.241184   16.349443   16.737952   16.60584399]","Left/Right",5.01518819700868,FALSE,16.65704,11.2630810428554,-16.1191542448546,-55.0565000634494,393.513005106143,9.8430369501549,6.35796935963461,0.281229569656849,0.010225035485276,0.00108266598483807,FALSE,536.308123779059,12.8713949706974,-1.81820508362262
"7","P4",4,907,712,NA,"Static","2",6,"nan","nan",74,-309,81.4820559450344,-335.553881315831,85.1578486616132,-329.876917038704,-318.81639141267,92.3194578514959,88.7652563397531,-324.305567917338,0,0,"[16.60584399 16.930285   16.696604   16.43826501 16.661378   16.70501
 16.96708999 16.336111   16.590017   17.196203   16.51454701 16.35488399
 16.882839   16.390291   17.048547   16.258248   16.716492   16.681031
 16.848531   16.490582   17.01237001 16.680004   16.680948   16.62333299
 16.437556   16.810592   16.442657   17.19593401 16.368339   16.777948
 16.544835   16.408992   17.10137801 17.00616299 16.07301101 17.056125
 16.307439   16.7062     16.818169   16.171483  ]","Upper/Lower",5.41881811869098,FALSE,16.66340687525,-10.8374019064615,-16.7374899031609,-122.922760723159,398.872622450886,-7.48205594503438,26.5538813158307,0.662108533309693,-0.43734907038331,-0.0456859581403879,FALSE,345.305274658741,8.28732659180978,6.5994928054957
"8","P4",4,908,708,NA,"Static","2",7,"nan","nan",28,-137,21.7584879613342,-133.159264363027,27.5068643500223,-136.836106101958,-143.898495190876,38.5482073201641,33.0043403510725,-140.352464087702,0,0,"[16.171483   16.340812   16.81222701 16.73556099 16.21910701 17.077146
 16.60447099 16.567728   17.130925   16.310209   16.47250001 16.535555
 16.92318999 16.72799101 16.52695499 16.89680001 16.222479   16.98575201
 16.846378   16.39929699 16.74732601 16.930799   16.35387499 18.348646
 14.693616   16.585455   16.66352201 16.742508   16.730305   17.124495
 16.50381199 16.285526   17.014518   16.74973201 16.50293599 17.02542101
 16.41772299 16.48631501 16.88625199 16.624564  ]","Upper/Lower",4.10667889799515,FALSE,16.64809780025,-16.7897193588299,10.7392308278484,147.395743969828,399.055063958522,6.24151203866577,-3.84073563697282,0.175885327161954,-0.175858643282027,-0.0183619859309593,FALSE,134.925244057834,3.23820585738802,-6.40925745941611
"9","P4",4,909,628,NA,"Static","2",8,"nan","nan",-19,-218,-26.0250272020411,-217.753255976156,-29.125314722762,-223.669464866497,-235.383443668461,-35.263823854347,-32.1313411164046,-229.405797369791,0,0,"[16.88625199 16.624564   16.35325901 16.73331    16.99110999 17.147298
 15.870701   16.68706001 17.26779    16.453989   16.41366001 16.889484
 16.61521499 16.41106    16.99290301 16.392615   16.948914   16.80718199
 16.145909   17.02817901 18.051204   15.098798   16.510196   16.58754901
 17.12411799 16.62618901 16.49719299 16.874243   16.21851401 17.215802
 16.323435   16.52665899 17.183431   16.40482301 16.886928   16.32451499
 16.849676   16.33299301 16.68405399 17.08605101]","Upper/Lower",5.02815778899821,FALSE,16.6766706255,9.23879665230597,17.6301876923051,62.343987012282,397.84605397135,7.02502720204108,-0.246744023843604,0.168704619161322,0.0730127600675241,0.0076466721380776,FALSE,219.302946922937,5.26327072615048,-8.97191031447384
"10","P4",4,910,759,NA,"Dynamic","2",9,"nan","nan",431,-170,524.405258215805,-179.361367649965,526.260087016492,-185.601055581622,-198.550042356678,530.109342599969,528.139913728422,-191.924837077623,0,0,"[17.08605101 16.40693599 16.66998801 17.029875   16.26626799 16.732391
 17.189006   16.113262   17.932218   15.66958    16.48636801 16.88426599
 16.622173   16.411176   16.62607401 16.794889   17.00195299 16.66470501
 16.350747   16.94937699 16.251772   17.073183   16.685098   16.167601
 17.12618899 16.35966501 16.684855   17.11951899 16.32688001 16.902159
 16.36488699 17.040812   16.50022301 16.52574299 16.92305901 16.186854
 17.146484   16.487817   16.426362   17.011687  ]","Upper/Lower",4.19817615798092,FALSE,16.6799538,-5.70408438416405,19.1886747067123,106.555269621312,400.051803525122,-93.4052582158054,9.36136764996536,2.25295677295063,0.854116826427868,0.088958981780784,FALSE,554.23043497236,13.3015304393366,-5.56620632114874
"11","P4",4,911,159,NA,"Dynamic","2",10,"nan","nan",353,-116,430.022250222817,-82.2117779659111,423.411096412705,-84.0043807271313,-87.4372994160156,410.750425593266,416.981119338758,-85.7478577340809,0,0,"[17.011687   16.526083   16.67155001 16.74569699 16.38130701 16.99621399
 16.572708   16.63319999 16.448468   16.55326001 16.963059   16.28762101
 16.707196   17.00206599 16.72327901 16.630827   16.305642   17.042914
 16.741053   16.675322   16.250753   17.024302   16.486558   16.51903501
 17.033336   16.497505   16.640923   16.530483   16.923433   16.34783301
 16.66623699 17.012166   16.64326301 16.29406799 16.86261801 16.87719299
 16.27729401 16.678083   16.992055   16.332757  ]","Left/Right",5.21243887899618,FALSE,16.66272620075,19.271824629551,5.22552145010449,15.1708768587559,399.44856885888,-77.0222502228175,-33.7882220340889,2.01857991744297,-1.99632788389602,-0.208237893387106,FALSE,437.810360913275,10.5074486619186,8.62885621595801
"12","P4",4,912,834,NA,"Static","1",11,"nan","nan",283,134,324.211748283714,96.6460702673669,327.12844601837,102.592397270143,114.608934159029,333.022606549039,330.163337560444,108.779688230298,0,0,"[16.332757   16.55671099 16.386374   17.046145   16.62069    16.689777
 16.59086499 16.32048401 16.915803   16.53133999 17.05233501 16.520094
 16.794985   16.27793    16.829737   16.770273   16.448665   16.956684
 16.56033599 16.433699   16.847199   17.089359   16.28623501 17.033204
 16.501964   16.71823399 16.32872    16.714667   17.00977901 16.31985599
 17.079899   16.680364   16.245797   16.979886   16.898146   16.33424101
 16.436259   17.07495899 16.562202   16.41842601]","Upper/Lower",5.64067702100147,FALSE,16.65487699975,-8.81085826532444,-17.9628638916625,-116.128139762112,400.431080910129,-41.2117482837143,37.3539297326331,1.33491017507873,-0.369310736689815,-0.0384284539729053,FALSE,338.310095361205,8.11944228866891,-6.51368420845064
"13","P4",4,913,660,NA,"Static","2",12,"nan","nan",368,341,475.598425036387,385.95027739342,469.138157278508,385.341898233431,384.090923598031,455.854284926378,462.297173576803,384.697666125114,0,0,"[16.562202   16.41842601 16.466703   16.39557599 17.01188101 16.662204
 16.5092     16.76715301 16.35116999 17.519267   16.483385   16.417683
 16.28948501 16.966186   16.94148    16.514969   16.20898099 17.113505
 16.62182501 16.286713   17.01686099 16.593737   16.753932   16.321175
 16.92789599 16.79764701 16.561379   16.46129    16.90326699 18.23077501
 15.201512   16.167567   16.95441701 16.70850599 16.887252   16.550634
 16.23504001 17.035068   16.36098399 16.76005   ]","Upper/Lower",5.12754484299512,FALSE,16.64842457525,19.7441401100091,1.85935379538967,5.37981709465393,397.064533196158,-107.598425036387,-44.9502773934205,2.79864580478497,-2.67213336963739,-0.280405025111005,FALSE,612.496104899574,14.6999065175898,7.98864912558879
"14","P4",4,914,456,NA,"Static","2",13,"nan","nan",-253,-345,-290.211008922303,-396.635699011589,-294.273022491853,-391.552316045756,-381.158899608834,-302.578160799256,-298.395337119708,-386.393469675537,0,0,"[16.76005    16.27173999 16.70773501 16.735513   16.678403   16.936306
 16.091661   16.658842   17.261902   16.460585   16.74075901 16.63990799
 16.719986   16.25974901 16.97009199 16.663751   16.299881   17.007489
 16.687943   16.57188499 16.65749501 16.874604   16.555767   16.392818
 16.88630199 16.857259   16.657232   16.198464   17.049505   16.689546
 16.613051   16.57863401 16.49437999 16.917182   16.57330801 16.81813599
 16.743149   16.498579   16.425957   16.966426  ]","Left/Right",5.18897199498315,FALSE,16.66429934975,12.3671518769527,-15.476799402755,-51.372458394617,396.277318740516,37.2110089223034,51.6356990115893,1.52752121036677,-0.41063280885716,-0.043176077862412,FALSE,491.46953865943,11.7952689278263,2.51381676030339
"15","P4",4,915,691,NA,"Dynamic","2",14,"nan","nan",113,193,130.750661994681,218.051358480748,129.33528089915,224.379568799476,237.550970136692,126.389337020015,127.88290393754,230.873188718643,0,0,"[16.966426   16.66203    16.43140901 16.876172   16.80274999 16.50491401
 16.434843   16.94196201 16.66834    16.692487   16.761445   16.69455199
 16.46716001 16.502511   16.95241399 16.706354   16.51595501 16.81631099
 16.686729   16.541031   16.461466   17.100695   16.47761301 16.826034
 16.72474299 16.55751    16.707784   16.47238601 16.81453199 16.170649
 17.234613   16.45976401 16.621684   16.509857   16.846609   16.377345
 16.941621   16.657563   16.340873   16.69412499]","Upper/Lower",4.27717927499907,FALSE,16.66558152525,4.36132497466544,-19.4996116559437,-77.3925972171129,399.653852854234,-17.7506619946808,-25.0513584807479,0.736865103174712,0.493749822337975,0.0514768195456028,FALSE,254.248167244814,6.10195601387554,-6.95716991271707
"16","P4",4,916,576,NA,"Static","2",15,"nan","nan",239,-291,256.778133343483,-244.465234386803,259.056984782051,-238.231893838591,-225.720273779374,263.631116926804,261.353314808157,-231.950744123631,0,0,"[16.69412499 16.852695   16.69577701 16.81598699 16.55200101 16.31864399
 17.119115   16.545983   16.784494   16.473822   16.432818   16.701737
 16.76831201 16.646323   16.946046   16.300513   16.75623699 16.895705
 16.445783   16.99681001 16.51586    16.55628999 16.82771901 16.277601
 17.108888   16.533025   16.65933899 16.76086201 16.593041   16.80457599
 16.449474   16.72788701 16.330552   16.68098    16.828063   16.44495499
 16.591693   16.71300501 16.561563   17.11700601]","Upper/Lower",4.97369911998976,FALSE,16.67063265025,-6.85298358332142,-18.7449606074288,-110.08194305934,399.072637039783,-17.7781333434829,-46.5347656131972,1.19556294148481,1.19543843255196,0.124814206905144,FALSE,354.539504973928,8.50894811937427,3.82966362055384
"17","P4",4,917,613,NA,"Dynamic","1",16,"nan","nan",409,-277,389.618204172066,-319.956799623402,387.100316403134,-314.649398034826,-301.423218106495,388.462633410047,387.781541054284,-308.0356658697,0,0,"[17.11700601 15.227888   16.243794   17.03953701 16.80798999 16.55943401
 16.74137    16.75912201 16.47269    16.37792699 17.09105801 16.72992199
 16.178484   17.39297701 16.24909999 16.66796701 16.70910399 16.46648701
 16.514591   17.083004   16.60283199 16.333415   17.113586   16.181617
 16.75911099 16.968052   16.686287   17.31659201 15.435361   17.897817
 16.65628099 15.981141   16.524815   16.44026801 17.175132   16.49024
 16.61626699 16.629695   16.93726701 16.50250499]","Upper/Lower",5.16872384898306,FALSE,16.64194332525,1.15557076201901,-18.5335815169075,-86.4322206120267,371.943171724042,19.3817958279336,42.9567996234023,1.1310445661418,-1.00001830471435,-0.112026332329102,FALSE,504.157414551761,12.0997779492423,6.54238212435538
"18","P4",4,918,852,NA,"Static","2",17,"nan","nan",279,136,380.856910585979,167.363718856075,387.454387795623,165.270756851998,161.316667577977,399.918548071552,393.596169405568,163.322358223479,0,0,"[16.50250499 16.40650301 16.74161099 16.98372701 16.567634   16.58390601
 16.935864   16.624866   16.35802499 18.035197   15.430848   16.48364801
 16.63188299 16.67470901 16.61262299 17.15340701 16.225738   16.67822199
 16.92542601 16.322435   16.818198   16.71352801 16.92309399 16.70016799
 18.46630401 14.761991   16.407135   16.965697   16.451098   16.55913801
 17.25093099 16.538066   16.213575   17.193564   16.633416   16.748407
 16.47025201 16.258544   17.162804   16.469915  ]","Upper/Lower",3.99639376869891,FALSE,16.6646150505,-19.0616374855732,6.0470512780978,162.399061387405,400.005663507255,-101.856910585979,-31.363718856075,2.55783180496517,2.10251083396914,0.219008444315335,FALSE,416.007933494581,9.98419040386995,-7.20953182115492
"19","P4",4,919,105,NA,"Dynamic","1",18,"nan","nan",259,-300,326.41994771824,-320.730221031043,319.922832387237,-322.084474088209,-324.820130501349,306.798346436759,313.169657999236,-323.492099872052,0,0,"[16.469915   16.651147   16.359263   16.916989   16.55373099 17.010724
 16.53309801 16.61916499 16.40125201 16.81549799 16.74865901 16.42857199
 16.488086   16.623973   16.93620501 16.782593   16.515004   16.75661601
 16.80400199 16.683423   16.67137899 16.457417   16.35064899 16.844239
 16.57053601 16.93129599 16.506101   16.907932   16.502378   17.163157
 15.983693   16.698438   16.600149   16.80770199 16.636595   16.919567
 16.407118   17.097085   16.60382999 16.656313  ]","Left/Right",4.97453962400323,FALSE,16.660337224,19.6216012814814,4.08990947030571,11.774098277092,401.018653412439,-67.4199477182401,20.7302210310428,1.69284088285103,-1.48251215343199,-0.154036075879997,FALSE,457.62195855422,10.9829270053013,5.33063630639451
"20","P4",4,920,449,NA,"Dynamic","1",19,"nan","nan",-659,-310,-614.530011334814,-313.297416083288,-616.155798956224,-314.058570980853,-315.629211168172,-602.888027385941,-609.538008385626,-314.84198572133,0,0,"[16.656313   17.11918    16.39814    16.61619899 16.330874   16.95156201
 16.40678699 16.92829201 16.58178    16.592245   16.6411     16.703557
 16.668549   16.713523   16.552086   16.71498999 16.724974   16.98097101
 16.341763   16.71599199 16.93542901 16.269178   16.73618899 16.990744
 16.79106    16.592082   16.38106001 17.190857   16.360953   16.836094
 16.53933499 16.65997    16.478505   16.95637101 16.66750299 16.68467201
 16.64082099 16.645692   16.35894501 16.904768  ]","Left/Right",4.53236282069702,FALSE,16.673977625,-11.6419839488727,2.33179508488416,168.673987046367,237.360032133059,-44.469988665186,3.29741608328828,1.07020971708907,1.06203710566543,0.186432170874439,FALSE,689.784318287703,16.5548236389049,7.52977639052641
"21","P4",4,921,171,NA,"Dynamic","2",20,"nan","nan",307,54,434.507380656418,30.4162317026664,440.040186748752,26.9528764061623,19.9521050082803,451.224113122213,445.598372910603,23.473634017879,0,0,"[16.35894501 16.904768   16.632049   16.64076099 16.61821001 16.61249599
 16.766132   16.359514   16.930008   16.709209   16.464042   16.508885
 16.60812899 16.853646   16.78546501 16.356451   17.033706   16.633697
 16.69605401 16.394472   16.984738   16.69958999 16.64060101 16.842856
 15.97395899 16.65444201 17.07586901 16.25068899 16.731146   16.63707801
 16.69769701 16.73737599 16.726627   17.06452601 16.575288   16.845379
 16.565449   16.452397   16.40603    17.34586401]","Left/Right",4.40635341199231,FALSE,16.669356001,-16.7167324657955,10.4641266943861,147.954782880843,394.371196276601,-127.507380656418,23.5837682973336,3.11208160551787,2.89421535755887,0.305783758305646,FALSE,435.57067279133,10.4536961469919,-7.76168686058877
"22","P4",4,922,282,NA,"Static","1",21,"nan","nan",240,63,303.955279248363,83.3540159381478,297.663161362921,80.9892672002236,77.9296776670696,284.930072343974,291.21135881055,79.4389860759939,0,0,"[16.40603    17.34586401 16.69894    16.84153    16.599726   16.31200599
 16.921007   16.77671001 16.613026   16.32865399 16.915001   16.72269699
 16.72554501 16.35137299 17.14477301 16.437054   16.74638799 16.545975
 16.960373   16.30899801 16.453369   16.64317799 17.064343   16.498656
 16.60428001 16.829994   16.724267   16.665517   16.56864399 16.755081
 16.74965401 16.60956899 16.63059801 16.62082899 16.92763601 16.503162
 16.273067   16.612444   17.875461   15.601184  ]","Left/Right",5.14606118769734,FALSE,16.672815075,19.0252069043881,5.42433827107823,15.9135522041199,395.521598917241,-63.9552792483625,-20.3540159381478,1.61078511792316,-1.61004211957337,-0.16961169377148,FALSE,315.177257675688,7.56425418421651,9.59951107593096
"23","P4",4,923,571,NA,"Dynamic","2",22,"nan","nan",142,251,132.641073894832,336.709030799482,129.910281397638,330.672984650374,318.459404515613,124.384685308416,127.204689552239,324.692641121429,0,0,"[15.601184   16.537321   16.77056099 16.28445601 16.93712699 16.75876
 16.40211101 16.41822999 17.623728   16.082036   16.30024301 16.608459
 16.77519    16.743473   17.29958699 16.51424801 16.27442999 16.85444701
 16.679273   16.37873999 16.924036   16.74883401 16.27963199 17.04889401
 16.724669   16.611582   16.427562   16.499839   17.152696   16.735625
 16.525848   16.451701   16.859863   16.683972   16.557981   16.483336
 17.009815   16.430891   16.65378999 17.00352201]","Upper/Lower",3.97304333499051,FALSE,16.6414423,8.25638858641642,18.2496262838691,65.6573326326905,401.215167910968,9.35892610516794,-85.7090307994818,2.06924368213481,-1.78155650421005,-0.185016736518855,FALSE,361.893113924403,8.68543473418566,9.58819665175516
"24","P4",4,924,794,NA,"Static","1",23,"nan","nan",69,-105,95.3388423123987,-88.4563523012992,90.4283654799384,-93.0562925681937,-102.140757573463,80.7306189103315,85.592766498807,-97.5860902287429,0,0,"[17.00352201 16.54247899 16.83752601 16.459394   17.002668   16.40840499
 16.58591801 16.782112   16.27630599 16.73210501 16.880417   16.606206
 16.74637699 16.73215    16.572541   16.730616   16.270961   16.895893
 16.52535    17.04245    16.59468599 16.77878501 16.559992   16.31499399
 16.97769501 16.55561299 16.788754   16.726638   16.25438701 17.06954799
 16.528889   16.379889   16.97822001 16.49869699 16.893373   16.74946501
 16.585659   16.59069999 16.818762   16.62531401]","Upper/Lower",4.15423656969506,FALSE,16.6725864,14.6082234020672,13.6844052721639,43.129828040602,400.189291166609,-26.3388423123987,-16.5436476987008,0.746483684133024,-0.732777242361203,-0.0762948578893183,FALSE,130.053916188326,3.12129398851981,0.672118696094115
"25","P4",4,925,285,NA,"Dynamic","1",24,"nan","nan",-83,-82,-76.358796582294,-108.260739558685,-79.3067025017162,-114.004811080203,-125.88729646532,-85.4048941542776,-82.428355299793,-120.087432923513,0,0,"[16.62531401 17.150991   16.47516301 16.20632199 17.061209   16.425653
 16.67102201 16.840761   16.792874   16.28530299 16.73454001 16.67776899
 16.60428901 17.009626   16.67694401 16.39818899 16.84310701 16.40253099
 16.60675301 16.722106   16.83438    16.84608399 16.76794    16.720673
 16.239023   17.08927301 16.636678   16.57337199 16.782322   16.625816
 16.232473   17.148411   16.660173   16.78063499 18.316168   14.89209999
 16.382552   16.929053   16.31017901 17.20653   ]","Left/Right",4.86407278299157,FALSE,16.67960752525,9.04609757198367,17.6265569066352,62.8327231295407,395.938652770763,-6.64120341770605,26.2607395586853,0.650099720352626,0.487950654736181,0.0513495642276821,FALSE,132.480389285696,3.17952934285671,-9.50589781325087
"26","P4",4,926,344,NA,"Static","2",25,"nan","nan",468,-148,521.954685870385,-148.286134479306,524.031643230677,-154.50430907577,-167.137408365166,528.251275237687,526.150069589914,-160.846637148231,0,0,"[17.20653    16.4719     16.64563399 16.874029   16.46541701 16.495263
 16.88031599 16.778014   16.57146    16.588135   16.771911   16.73835001
 16.693356   16.18599299 17.218675   16.112768   17.128472   16.55626901
 16.62879399 16.451526   17.101786   16.527974   16.57935801 16.93834599
 16.44699901 16.618207   16.474121   16.949082   16.83838799 16.451291
 16.75287301 16.30158399 17.013904   16.611403   16.557896   16.806471
 16.563892   16.741232   16.471893   16.721363  ]","Left/Right",4.78046416968573,FALSE,16.67327187475,-6.29658936730232,18.85127388586,108.470040969551,397.343503797417,-53.9546858703848,0.286134479305673,1.29493067002824,0.41675309091858,0.0437020159022426,FALSE,542.609870699812,13.0226368967955,-5.4139696716651
"27","P4",4,927,458,NA,"Static","1",26,"nan","nan",-338,-106,-387.13178770404,-92.976075165631,-391.440128122295,-97.9881686436483,-108.017548104653,-400.061272378957,-395.775378630079,-103.031567884704,0,0,"[16.721363   16.257874   16.97208101 16.45721799 16.87847001 16.782561
 16.546135   16.47868899 17.074139   16.60572601 16.438839   16.46615499
 16.59132101 16.750678   16.7163     16.651781   16.870166   16.370438
 16.70192101 16.67204899 16.585798   16.54894699 16.89005301 16.56083199
 16.7182     16.685813   16.68729601 16.74023799 16.646784   17.125012
 16.637914   16.35988199 16.87115901 16.69370099 16.772687   16.720532
 16.434941   16.743103   16.547361   16.94238601]","Left/Right",3.78127449701424,FALSE,16.672913575,12.929484674917,15.0414729390224,49.3180084973573,396.5464566512,49.13178770404,-13.023924834369,1.21988843108934,0.531611946594293,0.0558585189786367,FALSE,398.140140659204,9.5553633758209,-7.78491313152927
"28","P4",4,928,16,NA,"Static","2",27,"nan","nan",-392,-312,-410.896026730456,-292.213294313539,-408.165168011664,-286.124071688629,-274.000202494078,-402.727926522086,-405.496687259486,-280.173938399609,0,0,"[16.94238601 16.51313899 16.323455   17.107044   16.43948701 16.79045
 16.681965   16.63456899 16.938282   16.16318099 16.71391501 16.84982599
 16.36334701 16.584796   17.215571   16.5379     16.667192   16.615688
 16.35402099 16.73969801 17.023911   16.630584   16.64023999 16.626518
 16.72488901 16.654229   16.23571101 16.925883   16.34981399 16.690449
 16.608998   16.666066   16.720769   16.70563901 17.42807499 15.939498
 16.75012    16.43813    16.698996   16.999556  ]","Left/Right",5.34623073200055,FALSE,16.665849675,-8.1681002083696,-18.2130918194612,-114.154999572783,399.236090371476,18.8960267304555,-19.7867056864611,0.656641731629612,0.247724154407463,0.0258539746679051,FALSE,504.20645985196,12.100955036447,8.27792245867016
"29","P4",4,929,867,NA,"Dynamic","2",28,"nan","nan",308,-107,439.833334078506,-127.518889142609,445.132796218983,-131.587036293007,-139.714939612497,455.72078980198,450.429973857863,-135.653429739271,0,0,"[16.999556   16.52560799 16.93483601 16.64166299 16.66065201 16.611741
 17.03030099 16.60025    16.053588   16.984706   16.652873   16.295419
 16.597321   16.682944   16.83190301 16.474579   16.58245901 16.92682499
 16.910173   16.41910101 16.513382   17.156238   16.558449   16.37036599
 16.73032901 17.107843   16.059662   17.202232   16.53481899 16.409676
 16.859853   16.39883901 16.96858599 16.72717901 16.63925199 16.29199201
 16.673643   16.68670299 16.70079601 16.629972  ]","Upper/Lower",5.09493406699039,FALSE,16.66590772525,-15.8874557234736,12.1960504698883,142.488250890747,400.595273707949,-131.833334078506,20.5188891426089,3.20209406555763,2.80964166581798,0.292236105680477,FALSE,457.945879831645,10.9907011159595,-8.9415838967011
"30","P4",4,930,917,NA,"Dynamic","1",29,"nan","nan",-374,153,-340.952951108076,111.620344138253,-336.510519839042,116.455680758193,126.351712370793,-327.418610892337,-332.067150049524,121.292038904904,0,0,"[16.629972   17.227231   16.839945   16.33524    16.477556   17.028381
 16.65524    16.591523   16.71288199 16.86255401 16.170934   16.313934
 17.04435199 16.672478   16.77787301 16.486768   16.71366399 16.57935001
 16.27455    16.743065   16.738618   16.862579   16.554546   16.433746
 16.730506   16.593333   17.176453   16.16805801 16.739723   16.65522999
 17.07549501 16.624489   16.66916    16.714228   16.710052   16.29812599
 17.022366   16.474453   16.511568   16.80094399]","Upper/Lower",4.57176575368794,FALSE,16.66727912475,-13.5343402157392,-14.7313682325395,-132.575022876263,400.081074099434,-33.0470488919235,41.3796558617466,1.2709542931153,-0.194724109230722,-0.0202796509920976,FALSE,358.758994444528,8.61021586666866,3.97308526042043
"31","P4",4,931,10,NA,"Static","1",30,"nan","nan",363,-72,466.892873822135,-88.2464430472054,462.762777435043,-82.7337374775763,-72.240165783306,454.901036590227,458.849800280533,-77.5108349271858,0,0,"[16.80094399 17.0389     16.57176201 16.718392   16.7414     16.44864799
 16.58133301 17.32724099 16.32679501 16.517884   16.817429   16.278874
 17.21752199 16.64512701 16.440379   16.67687201 16.791278   16.61442999
 16.24085    17.123674   16.54399901 16.55713499 16.824153   16.47169799
 16.89444401 16.62285799 16.55827601 16.91461999 16.51875601 16.696418
 16.76693901 16.55235099 16.706675   16.65831701 16.29242599 17.22370301
 16.42168    16.45020199 17.071134   16.499317  ]","Left/Right",4.65233329069451,FALSE,16.679120875,11.9918372319076,-16.0062772638994,-53.1595996767282,399.703856308768,-103.892873822135,16.2464430472054,2.52373165336568,-1.80708234830676,-0.188377211422123,FALSE,475.159331526148,11.4038239566275,7.08278386482892
"32","P4",4,932,593,NA,"Dynamic","1",31,"nan","nan",318,-302,341.726664412104,-300.862614705703,341.79783887696,-294.160427011237,-281.018471239345,341.937401018738,341.868774588677,-287.480721654504,0,0,"[16.499317   16.767262   16.652041   16.568796   16.552578   17.017682
 16.432102   17.04790801 16.517054   17.064933   16.41821901 16.57380399
 16.542994   16.92358901 16.59187399 16.395939   17.092833   16.32417999
 17.046498   16.547229   16.651347   16.640849   16.318647   16.808149
 16.57765399 16.88969601 16.42895699 16.860738   16.729066   16.41524999
 17.021458   16.27280201 16.72943399 17.085749   16.57911201 16.580763
 16.186676   16.71381599 16.737457   16.56625401]","Upper/Lower",4.17740172400954,FALSE,16.65926764975,-0.210736606634327,-19.8441434663579,-90.608434639871,397.081528830318,-23.7266644121038,-1.13738529429742,0.570093844619455,0.033342584008743,0.00349871306728874,FALSE,455.297074554378,10.9271297893051,6.26685742795348
"33","P4",4,933,176,NA,"Static","2",32,"nan","nan",-525,-18,-565.618288905172,-65.2522655458571,-566.014499638159,-58.7571109436729,-45.5183511653426,-566.822076830218,-566.41558434154,-52.1820564584432,0,0,"[16.56625401 16.386124   16.74973499 16.86308    16.25801601 16.53896799
 17.087178   16.59130301 16.35352899 16.54616301 16.713032   16.61579499
 16.79469401 17.099099   16.623059   16.53714801 16.736993   16.75205499
 16.47594901 16.66589    16.711042   16.70379499 16.707602   16.363656
 16.91616701 16.714639   16.64651799 16.657022   16.755887   16.607008
 16.595165   16.71666899 16.69007001 16.68134099 16.460379   17.007177
 16.67984101 16.435411   16.404589   16.82278499]","Left/Right",4.4789235007047,FALSE,16.655770675,1.20378792504653,-19.7339143805145,-86.5092274267223,395.670601482505,40.6182889051717,47.2522655458571,1.49545654161293,-1.07259447978464,-0.112951117647464,FALSE,569.369745335034,13.6648738880408,0.51748924457932
"34","P4",4,934,109,NA,"Dynamic","1",33,"nan","nan",306,-275,343.821130661834,-248.234442914694,347.384988043828,-242.564991818153,-231.276548701458,354.480983872629,350.949357819026,-236.8947255969,0,0,"[16.404589   16.82278499 16.970139   16.54817601 16.793085   17.086008
 16.149627   17.23246601 16.17536299 16.635837   16.870992   16.77086701
 16.77996799 16.63573    16.68232201 16.719201   16.83373    16.533431
 16.52953599 16.65143701 16.66900799 16.715702   16.69605001 16.699463
 17.096047   16.106469   16.87075599 16.54084701 16.56750099 16.77836101
 16.28744499 16.63846901 16.525229   16.62193199 16.63838601 16.72721699
 16.59707101 16.733713   16.73990399 16.62680801]","Left/Right",4.60091664698848,FALSE,16.66754167525,-10.659853210795,-16.9578942132359,-122.153761344744,400.579841354574,-37.821130661834,-26.7655570853064,1.11201429445882,1.02692359997893,0.106816366963862,FALSE,424.067575439045,10.1776218105371,0.615336650771323
"35","P4",4,935,640,NA,"Static","2",34,"nan","nan",-531,104,-572.251374410208,80.6913354346416,-565.618009155739,81.0413343103091,81.75576849634,-552.07767164127,-558.781571983708,81.4020479499161,0,0,"[16.62680801 16.820533   16.79871201 16.64476399 16.907492   16.82305901
 16.53889799 16.571228   16.51207701 16.70702599 16.683165   16.73521001
 16.285797   17.207228   16.390401   16.737857   16.63622999 16.747794
 16.43607501 16.713077   16.527941   16.86411501 16.43079899 17.15998701
 16.36041599 16.74725401 16.70633799 16.72470801 16.24650499 16.72299301
 16.87875    16.676524   16.796026   16.31170799 16.825176   16.532874
 16.81298    16.95359799 16.61510501 16.580586  ]","Upper/Lower",4.50808248370595,FALSE,16.6749453505,-20.1737027689371,-1.06443306169842,-176.979680868414,403.834702868723,41.2513744102076,23.3086645653584,1.13714667791876,-1.01813300496454,-0.105048447394031,FALSE,577.912387069699,13.8698972896728,9.42213129373483
"36","P4",4,936,908,NA,"Static","2",35,"nan","nan",-50,221,-35.5321377940756,268.092845439174,-42.1440311860335,267.111571766361,265.153499665342,-55.3376634462165,-48.7398712098742,266.13268058016,0,0,"[16.580586   16.71841399 16.337996   16.55758801 16.874846   16.642794
 16.701193   16.503145   16.690006   16.707492   16.57346099 16.72356701
 16.710276   16.65366799 16.561903   16.534236   16.851512   16.63397001
 16.63893499 16.66045201 16.663414   16.680934   16.72436699 16.90191701
 16.31299499 16.8016     16.479628   16.824886   16.525891   16.85655701
 16.555446   16.704696   17.13638401 16.125949   16.79400301 16.62205199
 16.668386   16.67844701 16.694245   16.681667  ]","Upper/Lower",3.71747783999308,FALSE,16.6572376005,19.8055256521409,2.9393457738322,8.44167108647536,400.675727789766,-14.4678622059244,-47.0928454391743,1.18236363016617,-0.509387078713221,-0.0529716679623462,FALSE,270.437250747544,6.49049401794106,0.149429814092325
"37","P4",4,937,930,NA,"Static","1",36,"nan","nan",476,-323,462.746737412275,-301.879300078361,458.216523478172,-296.800312633325,-287.018159077776,449.491310269349,453.947562290371,-292.014225134681,0,0,"[16.681667   15.53568001 16.54622999 16.97456201 16.575218   16.65068499
 16.61449199 16.69543701 16.67432    16.56149    16.726013   16.52213001
 16.75672899 16.68542701 16.613908   16.824807   17.026749   16.23583901
 16.71166399 16.78525801 16.439434   17.04554301 16.31546899 16.689007
 16.505883   16.77505    16.704411   17.070627   16.68553801 16.72779499
 16.727208   16.827609   16.612009   16.44134501 16.725432   16.65891199
 16.744615   16.19238101 16.92097599 16.52589401]","Upper/Lower",5.38534531499317,FALSE,16.64333607575,13.2554271429253,-14.8611410005855,-48.2685640454292,398.834518701206,13.2532625877253,-21.1206999216385,0.598429753783918,0.590009047834448,0.0616388732010748,FALSE,552.50851106703,13.2602042656087,9.26636960396326
"38","P4",4,938,229,NA,"Dynamic","1",37,"nan","nan",-217,-75,-247.022391355612,-101.583088540093,-253.520781176802,-102.978974547148,-105.735067301946,-266.351460052803,-259.94443105099,-104.358806047001,0,0,"[16.52589401 16.75335801 16.479506   16.744194   16.882407   16.72280401
 16.60542299 16.118049   16.62157601 16.91167899 16.53530101 16.816498
 16.919188   16.58194    16.6384     16.855022   16.368653   16.44128301
 17.20910399 16.05195901 16.73906999 17.021236   16.64352301 16.449506
 16.728909   16.586417   16.626044   16.70226299 16.630906   16.71538301
 16.97930899 16.35758701 16.952366   16.73017199 16.827869   16.421598
 16.449414   16.534182   16.573345   16.75711801]","Left/Right",3.87566656999115,FALSE,16.655211376,19.3290686971903,4.15197876185269,12.1231954917311,395.671407771482,30.0223913556122,26.5830885400929,0.9623983777662,0.83845612675296,0.0882946588049063,FALSE,267.093964193109,6.41025514063461,-9.44736399043346
"39","P4",4,939,445,NA,"Dynamic","1",38,"nan","nan",57,-83,85.1030535989059,-73.6702798041451,87.2213593649965,-67.4509137835972,-54.9833732952148,91.4677830066109,89.409912036142,-61.0253021769112,0,0,"[16.75711801 16.54241799 16.68529    16.34950901 16.917474   16.652526
 16.175764   16.799975   16.961514   16.69414299 16.65932601 16.279488
 16.66883299 16.555683   16.734134   16.6832     16.600168   16.78184699
 16.625484   16.592682   17.047204   16.274447   16.717922   16.64495
 17.171891   16.544636   16.39393599 16.544549   16.724973   16.61133401
 16.562866   16.85931    16.97824799 16.608142   16.42617301 17.069318
 16.130102   16.852154   16.52654599 17.05950301]","Left/Right",4.89771792069951,FALSE,16.66161949975,-6.36472940770498,-18.6869065089303,-108.808757783845,394.941208025377,-28.1030535989059,-9.32972019585488,0.710669665243403,0.429413507599664,0.0453035264989863,FALSE,112.560383165123,2.70144919596295,3.60750819100392
"40","P4",4,940,750,NA,"Static","1",39,"nan","nan",-270,252,-290.586952870702,224.089279913945,-289.346521157338,217.736400245541,204.44612253946,-286.751527578594,-288.066203593088,211.179244913738,0,0,"[17.05950301 16.58188    16.40636699 17.111002   16.457171   16.798536
 16.363533   16.51372999 16.660074   16.506413   16.760346   16.746992
 17.002316   16.309122   17.16002901 16.52391099 16.66728701 16.72585199
 16.646189   16.67943499 16.77295301 16.541954   16.76818999 16.62706201
 16.86244    16.158768   17.09941299 16.36965401 16.37895699 16.642745
 16.77859901 16.53749299 16.987194   16.50716401 16.52162099 16.70796801
 17.02791599 16.7569     16.255011   16.893926  ]","Upper/Lower",4.90688217899879,FALSE,16.6718903995,-3.83542529210814,19.6431573744841,101.048285225406,400.156541376404,20.5869528707022,27.9107200860554,0.832364470861322,0.562757249204725,0.058597614414123,FALSE,366.956104392651,8.80694650542362,7.21061913259419
"41","P4",4,941,904,NA,"Static","2",40,"nan","nan",453,-99,465.070995999023,-60.4991979830755,460.423924550039,-65.2488013244889,-74.7743273414386,451.104030485634,455.748579518719,-70.0273020699152,0,0,"[16.893926   16.551273   16.348384   17.228747   16.05871299 17.09557201
 16.684687   16.627178   16.32466    17.056649   16.723245   16.751698
 16.850252   16.02486199 16.996313   16.274433   17.00779999 16.74618201
 16.65909399 16.409177   16.917553   16.218075   16.611689   16.674927
 16.921487   16.40412099 16.73863601 16.670082   16.54916799 17.109619
 16.330823   16.568324   16.772417   16.59739799 16.64635801 16.70005699
 16.597765   16.719929   16.59947001 17.01436099]","Upper/Lower",4.21854325699678,FALSE,16.666877599,13.9669655133887,14.2751293583631,45.6251585483552,399.422256896489,-12.0709959990226,-38.5008020169245,0.968369724539334,-0.86307461810474,-0.0900336468489545,FALSE,468.989535358859,11.2557488486126,5.7724836199139
"42","P4",4,942,110,NA,"Static","1",41,"nan","nan",82,-351,92.8536048319531,-387.311904317646,93.6409078437452,-380.504578950446,-367.277787204048,95.1706559337165,94.4062120114748,-373.887464070178,0,0,"[17.01436099 16.667761   16.89979099 16.61186501 17.01949499 16.65472701
 16.15747    16.761814   16.537381   16.66710399 16.62681201 16.740676
 16.60052199 16.730702   16.810851   16.40731801 16.97601599 16.37614901
 16.75422699 16.51111101 16.814252   16.52745699 16.729259   16.78348701
 16.62304999 16.56547401 16.81650399 16.673764   16.58732201 16.61451299
 16.68636801 16.66163    16.660729   16.77226499 16.62191801 16.71804499
 16.637521   16.658092   16.965166   16.147159  ]","Left/Right",4.83150641999964,FALSE,16.6697531995,-2.31705110176337,-20.0341171135973,-96.5972474589944,403.27854801028,-10.8536048319531,36.3119043176456,0.909582627703881,-0.835787827881584,-0.086353447264226,FALSE,398.286709741173,9.55888103378816,9.01652392284727
"43","P4",4,943,892,NA,"Static","2",42,"nan","nan",363,252,475.814452089242,263.490985813262,478.055405542274,257.068913020082,244.563701978444,482.419042761461,480.242535891721,250.801085237529,0,0,"[16.147159   16.56103901 16.59626199 16.55029401 16.673376   17.53158
 16.29318099 16.65625301 16.320562   16.611837   16.57549699 16.672522
 16.66723299 16.78930401 16.876226   16.393766   16.61085001 16.76795799
 16.622678   16.72815501 16.55511399 16.668668   16.809308   16.478683
 16.74392101 16.967016   16.35531199 16.654523   16.71307    16.96418201
 16.35475599 16.711916   16.61465    16.703974   16.670414   16.815111
 16.508      16.601323   16.938167   16.67375299]","Upper/Lower",5.15951922399108,FALSE,16.65368982475,-6.60459067221979,18.9272838348174,109.236204084009,401.242675683315,-112.814452089242,-11.4909858132618,2.72155591024143,0.631651147839515,0.0655932168277605,FALSE,543.899708054555,13.0535929933093,1.6241191334375
"44","P4",4,944,567,NA,"Dynamic","2",43,"nan","nan",158,-253,122.948793326458,-216.115824021095,129.431143402701,-216.656976433392,-217.755951872409,142.595537312855,135.973468452811,-217.203135610427,0,0,"[16.67375299 16.663993   16.58191001 16.520629   16.46383799 17.101324
 16.20027301 16.56809899 16.66338701 16.72577999 16.598555   16.820331
 16.644039   17.014015   16.25358401 16.723375   16.688954   16.521168
 16.665068   16.77936    16.62825501 16.682313   16.547099   16.69105199
 16.790264   17.14900501 15.98510599 16.76696801 16.71517899 16.65735901
 16.805095   17.00582699 16.593159   16.61993201 16.275833   17.40000599
 16.60160901 16.461573   16.359111   16.76955199]","Upper/Lower",4.21200343300006,FALSE,16.6593933,-19.6467439863972,1.6401278513143,175.227961828932,394.473845156968,35.0512066735425,-36.8841759789052,1.22118016995962,-0.911955720232309,-0.0963261708632657,FALSE,248.641217767185,5.96738922641244,-5.42474580739857
"45","P4",4,945,654,NA,"Static","1",44,"nan","nan",234,198,284.01080011792,219.248378901746,277.893048940445,216.447667121112,210.911268349588,265.799583865723,271.877278664666,213.693642285483,0,0,"[16.76955199 16.538015   16.544532   16.72030801 16.70886599 16.617624
 16.963879   16.459548   16.603044   17.12504101 16.286413   16.60948299
 16.957172   16.43865301 16.588881   16.67065799 16.784347   16.40852401
 17.14969    16.35439099 16.69405701 16.607906   16.69523001 16.66883699
 16.67917801 16.56091399 16.697133   16.685533   16.634891   16.52417
 16.93097099 16.61942201 16.59421199 16.741839   16.607842   16.6438
 16.70260599 16.554762   16.79958601 16.74254899]","Upper/Lower",3.80160502869694,FALSE,16.6671014745,18.2112162521967,8.33711055215815,24.5983477681875,400.567037824944,-50.01080011792,-21.2483789017462,1.30410217046317,-1.30360705222769,-0.135600175202696,FALSE,358.792399912073,8.61101759788975,9.35135324510348
"46","P4",4,946,573,NA,"Dynamic","1",45,"nan","nan",95,330,171.861167746109,387.834540997056,177.943350734802,385.161942824977,379.800628683225,190.144396896798,184.055287874735,382.4762702534,0,0,"[16.74254899 16.726546   16.605906   16.682958   16.761908   16.58390599
 16.77498101 17.35708299 16.352395   16.71816    16.73819601 16.462721
 16.45388499 16.560006   16.635786   16.59045501 16.731771   16.64383399
 17.21934701 16.28436099 16.67714601 16.447998   17.01040599 16.53375101
 16.45649799 16.69576499 16.72045901 16.631272   16.854015   16.46260099
 16.594424   16.81784801 16.508837   16.94015799 16.57642101 16.66196999
 16.63544    16.67656    16.60661701 16.632503  ]","Upper/Lower",4.5271159959957,FALSE,16.6691860745,-18.2832291506892,8.03391231383108,156.278626704588,399.34930458658,-76.861167746109,-57.8345409970564,2.3085546530308,1.13042756150112,0.117944736236966,FALSE,424.20736930121,10.1809768632291,-0.0298578805723216
"47","P4",4,947,543,NA,"Dynamic","2",46,"nan","nan",407,-234,542.858548952087,-223.705242546442,540.553340337437,-229.922273956555,-242.188080741707,536.005310642625,538.273303397834,-236.071418628164,0,0,"[16.632503   16.40350099 17.04726201 16.34926099 17.020871   16.43892401
 16.622289   16.58917099 17.07503201 16.79478399 16.861511   16.267482
 16.201016   16.680605   16.96666201 16.191335   16.794226   16.75872799
 16.554203   16.80406001 16.53203399 16.86547401 16.575897   16.61955701
 16.94548299 16.31816701 17.207218   16.249544   16.62202099 16.90779101
 16.83663399 16.433913   16.989246   16.617941   16.61471601 16.704628
 16.360471   16.52493801 16.58028099 16.95351201]","Upper/Lower",4.8507205706992,FALSE,16.6628223005,6.85323830946254,18.4828381952646,69.6557594463227,394.340719370896,-135.858548952087,-10.2947574535579,3.26995286757028,-1.36524300582239,-0.14425374415645,FALSE,587.145160682712,14.0914838563851,-0.343693524756291
"48","P4",4,948,815,NA,"Dynamic","2",47,"nan","nan",182,241,248.18553080306,281.253205229455,254.788401008138,282.49817184755,284.977255040277,267.936596559122,261.342367697919,283.733917741602,0,0,"[16.58028099 16.95351201 16.686093   16.666397   16.30420401 16.479217
 16.851375   16.41907899 16.66468401 16.803096   16.98693499 16.21559101
 16.821891   16.55304    16.989554   16.34345199 16.58606001 16.71799799
 16.615913   17.053627   16.34157701 16.68241699 16.607679   16.602401
 17.08426101 16.71820899 16.69137301 16.211525   16.660665   16.659984
 16.71956999 16.74751201 16.53764199 16.626895   16.74823    16.6474
 16.754624   16.67463801 16.775467   17.08107699]","Upper/Lower",5.66554922469368,FALSE,16.671628625,-19.7510657560624,-3.72404981082195,-169.322276618332,401.862022649871,-66.1855308030597,-40.2532052294546,1.85916291133998,1.73994767556793,0.180404755187567,FALSE,375.09921774357,9.00238122584568,-7.57559698994955
"49","P4",4,949,321,NA,"Dynamic","1",48,"nan","nan",227,-304,274.149905234858,-397.166392478495,267.592723284176,-395.992526569012,-393.639446167677,254.448482352149,261.008859113684,-394.813884011807,0,0,"[17.08107699 16.694687   16.62848001 16.699306   16.610463   16.66290799
 16.79696901 16.568323   16.708529   16.893461   16.827406   16.37947399
 16.90073301 16.29630099 16.954554   16.577592   16.433561   16.639917
 16.755298   16.517134   16.86775399 16.464029   16.746375   16.801423
 16.532391   16.633655   16.653112   16.72807499 16.621181   16.68739
 16.72656901 16.640759   16.55416499 16.768495   16.65807801 16.684888
 16.67287    16.700906   16.665905   16.65162299]","Left/Right",4.32479643599072,FALSE,16.67714539925,19.7014228827093,-3.52694631081891,-10.1495699398218,400.041084510161,-47.1499052348583,93.1663924784954,2.50602872781642,-1.50791266556264,-0.157058104357897,FALSE,482.596429591708,11.582314310201,6.7603873087126
"50","P4",4,950,648,NA,"Static","2",49,"nan","nan",-557,132,-552.318846368788,117.795210307232,-552.946404006769,124.481632602114,137.74436511591,-554.191184656641,-553.569040652412,131.115623325941,0,0,"[16.65162299 16.632924   17.155372   16.13798    16.667299   16.755196
 16.603311   16.69857399 16.63425801 17.656941   15.780683   16.52896601
 16.673711   16.59575201 17.21111    16.486943   16.60896999 16.43759701
 16.630792   16.69141    16.736171   16.73253899 16.67199501 16.53305799
 17.91417701 15.467897   16.69759701 16.710454   16.91070599 16.40572801
 16.60558699 16.62431401 16.73429599 16.793562   16.536571   16.66923201
 16.642851   16.658034   16.769322   17.127144  ]","Upper/Lower",4.50496357900556,FALSE,16.6795161755,1.8723382878527,-19.9491548086783,-84.6381818689402,400.427817968711,-4.68115363121206,14.204789692768,0.358949867992777,-0.349921577525597,-0.0364112208891853,FALSE,564.740488742815,13.5537717298276,-2.87097351602647
"51","P4",4,951,27,NA,"Dynamic","2",50,"nan","nan",164,-268,199.193463341052,-251.545546845842,205.895824791434,-249.927161252896,-246.8010248823,218.842366079396,212.389324462494,-248.35920846592,0,0,"[17.127144   16.712984   16.582365   16.795073   16.849144   16.45150401
 17.040611   16.697837   16.995315   15.97388    16.55666401 16.65575999
 17.03854901 16.339674   16.71912501 16.547776   16.67658699 16.73447101
 16.616055   16.71287599 16.593911   16.81109601 16.476501   16.671205
 16.89451101 16.49984    16.75432199 16.61045001 16.576732   16.62984
 16.785835   16.561272   16.66815    16.731019   16.758752   16.64397
 16.59907    16.70056999 17.053669   16.50042801]","Left/Right",4.51133048300107,FALSE,16.683613426,-19.6489027383437,-4.74452196354218,-166.424927283078,403.861471390725,-35.1934633410519,-16.454453154158,0.932401973909985,0.913738739309667,0.0942710562117525,FALSE,320.863207575715,7.70071698181717,-4.02671966645549
"52","P4",4,952,270,NA,"Static","1",51,"nan","nan",-472,-39,-568.600339128025,40.6647508623392,-562.115347961253,39.1861604316036,36.213670058228,-549.078219210822,-555.61411051887,37.7038658188522,0,0,"[16.50042801 17.035517   16.07580899 17.018782   16.27611301 16.641842
 16.63021    16.778145   17.103319   16.12659701 16.610523   16.72319499
 17.29184001 16.11965    17.52331899 15.74936701 16.744622   16.640972
 16.618101   16.74920099 16.54940701 16.69352299 16.594352   16.59043001
 16.926436   16.70575299 16.751777   16.427915   16.68808299 17.899019
 15.90731701 16.58209099 16.88000601 16.6526     16.052648   16.70165401
 16.75933099 16.66321501 16.634343   16.582838  ]","Left/Right",3.89548741698673,FALSE,16.6550072505,-19.5221199172033,4.45108080411116,167.156012635678,400.742721523754,96.6003391280251,-79.6647508623392,3.00509308950226,-2.6854209921615,-0.279212909755692,FALSE,570.052600747686,13.6812624179445,9.48818602410423
"53","P4",4,953,846,NA,"Static","1",52,"nan","nan",-238,-292,-299.126956660053,-335.275833058928,-292.559896337709,-336.311903240569,-338.384681800496,-279.421730527024,-286.011724384854,-337.344993447084,0,0,"[16.582838   16.705325   16.61705899 16.647194   17.031239   16.498565
 17.062217   16.511982   17.519988   15.95278199 16.346178   16.442465
 16.74286601 16.55648799 16.61531301 16.775196   16.74898699 16.63395501
 16.963797   16.32867001 16.66294299 16.95786901 16.377654   16.543626
 16.69741899 17.07383401 16.21556799 16.60977901 16.88416301 16.66252299
 16.74341501 16.578255   16.63281399 16.616361   16.96097401 16.43349099
 16.68897101 16.55392899 16.64379401 16.696976  ]","Upper/Lower",4.67862442300247,FALSE,16.66293655025,-19.7052261330293,3.10884874156812,171.034473627806,399.068450328484,61.126956660053,43.2758330589281,1.79748665449827,-1.28726428594744,-0.134403037549893,FALSE,449.318172828635,10.7836361478872,5.19662828434266
"54","P4",4,954,416,NA,"Static","2",53,"nan","nan",393,158,481.449755471633,205.99430567422,480.108029427052,199.693636318047,186.365514640244,477.269809077822,478.680396283253,192.989552099575,0,0,"[16.696976   16.23477999 17.04828501 16.303545   16.697213   16.64921601
 16.805352   16.382676   16.79593    16.736643   16.524691   16.65763199
 17.02266    16.35607101 17.26579599 16.59009801 16.62898299 16.223289
 16.59906001 16.682277   16.751683   16.61036001 16.613524   16.707972
 16.78927    16.712861   17.055003   16.538702   16.649055   16.33426
 16.970057   16.31816701 16.55299    16.793772   16.652586   16.573613
 16.90259301 17.01328599 16.231574   17.045791  ]","Left/Right",5.16163641501043,FALSE,16.66795730075,4.17994639381163,19.6287910339766,77.9784468188881,401.347240402317,-88.4497554716334,-47.9943056742204,2.41516957359145,-1.56873696634607,-0.162861566455266,FALSE,523.667376312388,12.5680170314973,5.53180864456156
"55","P4",4,955,818,NA,"Static","1",54,"nan","nan",-98,262,-144.443890062552,352.448750810652,-151.112753869777,351.963643443477,351.002146892134,-164.330630954092,-157.693585077725,351.484939755203,0,0,"[17.045791   16.684442   16.285477   16.91869    16.43089099 16.65249001
 16.565075   16.756461   16.732048   16.93881099 16.91985801 16.402782
 16.69439199 16.365277   17.06522501 16.15595    16.702168   16.664034
 16.599515   16.767505   16.66229099 17.234977   16.50062701 16.683294
 16.284007   16.848856   16.40159999 16.68348501 16.56896199 16.74625001
 16.763797   16.56806299 16.64916401 16.759651   17.64542499 15.729997
 16.72332401 16.495428   16.72194499 16.606283  ]","Upper/Lower",4.53134396400128,FALSE,16.66560769975,19.8867408915398,1.44660391851795,4.16048915125409,398.81105966034,46.4438900625519,-90.4487508106524,2.44022429167352,0.954225651201576,0.0996948333560792,FALSE,380.899145869864,9.14157950087674,-2.98643923147881
"56","P4",4,956,504,NA,"Static","2",55,"nan","nan",408,-384,480.893294679047,-386.229127124916,478.625944029778,-379.714335702079,-367.30813356337,474.308198664123,476.453296001943,-373.471653856134,0,0,"[16.606283   16.89682    16.43653899 16.68062    16.659759   16.690702
 16.573684   16.751074   17.08278101 16.340514   16.80789399 16.833824
 16.395028   16.56090601 16.560894   16.804852   17.20896299 15.909426
 16.81061501 16.58953099 16.76750601 16.81391499 16.95463201 16.695799
 16.64330499 16.75917501 16.159466   16.59371999 17.021338   16.447688
 16.68643    16.51959101 16.713212   16.67682499 17.13537201 16.501987
 16.386433   16.61088401 17.138129   16.217946  ]","Left/Right",5.06249246699736,FALSE,16.66610155025,6.58509601492443,-18.9209935615469,-70.8105091005568,400.69674647493,-72.893294679047,2.22912712491637,1.75025690003997,-0.625555586666336,-0.0650487340873083,FALSE,616.791131183761,14.8029871484103,8.13763322099994
"57","P4",4,957,414,NA,"Static","1",56,"nan","nan",234,222,266.373949478223,274.632771341894,260.635488919004,271.147606607033,264.345751775119,249.43596790582,254.95726763959,267.699027261489,0,0,"[16.217946   16.41544601 16.749531   16.740986   16.72864999 16.58209201
 16.776092   16.53086899 16.75593201 16.44545699 16.74902    16.67981701
 16.614234   16.81232899 16.500579   16.839091   16.707095   17.019437
 16.63984901 16.574272   16.539431   16.413287   16.670645   17.136304
 16.070934   16.76867501 16.684239   17.173335   16.44283799 16.416143
 17.159934   16.18768    17.114121   16.292881   16.55999001 17.06079299
 16.32808901 16.59123899 16.81252    16.474901  ]","Left/Right",5.2810323839949,FALSE,16.64941757525,16.9379815724031,10.2870195667741,31.2717514391989,396.75288955062,-32.3739494782229,-52.6327713418935,1.48301381820711,-1.31980920794068,-0.138605292561695,FALSE,382.594093074574,9.18225823378977,9.2898881540505
"58","P4",4,958,590,NA,"Static","1",57,"nan","nan",-153,-226,-162.212620948155,-239.928825275457,-155.54141447346,-240.008647585887,-240.168082778048,-142.216504676881,-148.853003237807,-240.088675754699,0,0,"[16.474901   16.803245   16.531934   17.020812   16.21904199 16.621674
 17.175514   16.179809   16.76095399 16.614697   16.61975101 16.74468799
 16.647108   16.65313399 16.729444   16.612536   16.82853801 16.459021
 17.38648899 16.533217   16.522761   16.462379   16.567012   16.580011
 16.74416399 16.58981401 16.67965799 16.61251001 17.05470801 16.44360399
 16.542764   16.79522899 16.64444101 17.00570599 16.22703401 16.725154
 16.604399   16.71830899 16.67564601 16.552738  ]","Upper/Lower",3.99865604001388,FALSE,16.65911372425,-19.9961162712744,0.2392575025913,179.314477331936,400.132282601679,9.21262094815523,13.9288252754567,0.400796089769134,-0.217087495680681,-0.0226058049133534,FALSE,289.618327446539,6.95083985871693,5.28133714852692
"59","P4",4,959,351,NA,"Dynamic","2",58,"nan","nan",129,109,161.351918299895,136.669790040243,162.634026778147,143.700215491562,156.762807898958,165.016195622613,163.821643267408,150.212495329141,0,0,"[16.67564601 16.552738   16.72628899 16.65474901 16.54955299 16.68490301
 16.757716   16.651973   16.64538099 16.67027701 16.99399299 16.358166
 16.57665    16.829816   16.62626701 16.94452899 16.749307   16.33441499
 16.546443   16.858252   16.742986   16.530472   16.522039   16.56593599
 16.80345001 16.62003799 16.82844001 16.61290599 16.63727    17.108349
 16.19924999 16.783285   16.48909501 16.67607699 16.603247   16.788091
 16.651499   16.541449   17.718865   15.738961  ]","Left/Right",3.95887846201367,FALSE,16.66371919925,-3.66427732271802,-20.0930178587156,-100.335210319608,408.560341035744,-32.3519182998951,-27.6697900402427,1.02169663088767,0.792600036180648,0.0808326168511734,FALSE,211.454659557788,5.07491182938691,-7.41832573838321
"60","P4",4,960,901,NA,"Dynamic","1",59,"nan","nan",-181,122,-241.927491833939,103.852016847017,-236.958082890668,108.03810438677,115.408144661393,-225.740719075863,-231.431858147385,111.668948460032,0,0,"[15.738961   16.96821699 16.413449   16.633279   16.51040401 16.750808
 16.68623299 16.589769   16.67555601 17.61557399 15.859512   16.65938701
 17.024545   16.280531   16.56739099 16.82497401 16.605354   16.86873399
 16.44862701 16.829377   16.33841101 16.80064799 17.067291   16.342722
 16.917348   16.37600901 16.60164099 16.78004801 16.52313299 17.17153401
 16.27979999 16.85461499 16.38161001 16.93895299 16.817208   16.589832
 16.997368   16.505066   16.738565   16.09793001]","Upper/Lower",3.74191304470878,FALSE,16.64176035,-16.1867727580758,-11.5561278143759,-144.476042370892,398.3669554426,60.927491833939,18.1479831529829,1.5257486447409,-1.4431675805219,-0.150946211025302,FALSE,263.275811095994,6.31861946630387,4.97931875220875
"61","P4",4,961,343,NA,"Dynamic","2",60,"nan","nan",-409,76,-474.433679428654,82.6243024799388,-475.605218451118,75.9678438772144,62.8360527599672,-477.91641824171,-476.725374807592,69.6033316650945,0,0,"[16.09793001 16.548053   16.86292401 16.498713   16.821681   16.904576
 16.360375   16.743881   16.729692   16.52468901 16.94121999 16.320946
 16.74570001 16.71773099 16.935017   16.389226   16.498254   16.919517
 16.455622   17.00881    16.46515701 16.51612799 17.01879801 16.287686
 16.876704   16.55772199 16.595273   16.715285   16.646419   16.723416
 16.677452   16.88683299 16.403363   16.743846   16.985575   16.27623499
 17.03709501 16.318675   16.912059   16.98230499]","Left/Right",4.50089523369388,FALSE,16.666264575,3.48273881305607,19.7882497199716,80.0181514397263,401.857574999342,65.433679428654,-6.6243024799388,1.57843527750254,0.115631891356309,0.0119893110716836,FALSE,481.57459602486,11.5577903045966,-0.0172021000125277
"62","P4",4,962,557,NA,"Dynamic","1",61,"nan","nan",-286,-338,-275.708828146648,-393.893157144913,-268.975452647818,-393.789274632216,-393.584610204094,-255.709673740181,-262.346045981259,-393.686996150594,0,0,"[16.98230499 16.671593   16.618904   16.71236999 16.598691   16.613742
 16.78840301 16.98621799 16.36026701 16.707067   16.560555   16.807133
 16.47908401 16.76404099 16.733533   16.550682   16.68505299 16.838205
 16.593981   16.53427401 16.713932   16.59625    16.677041   16.63233299
 16.713459   16.591562   16.70847001 16.821774   16.50556599 16.70807201
 16.78718999 16.71882601 17.081627   16.16922799 16.71158901 16.59898
 16.616988   16.58041599 16.83405701 16.85694199]","Upper/Lower",5.06614632970013,FALSE,16.6802600745,-19.9991544064675,-0.308546940819269,-179.116110876202,399.704686987636,-10.2911718533516,55.8931571449128,1.36398426040585,0.226265527678305,0.0235867394775409,FALSE,480.798478745082,11.539163489882,5.62568731829949
"63","P4",4,963,364,NA,"Static","2",62,"nan","nan",-63,-62,-56.3851611768784,-63.3900534060476,-57.3100110344582,-68.20141476481,-77.8111988832561,-66.4565910153884,-62.021066758427,-73.1510493355128,0,0,"[16.85694199 16.63359901 16.734152   16.570041   16.631919   16.68282699
 16.72033101 16.646718   16.64997199 16.71038201 16.64540399 16.59327401
 16.65010001 16.747905   16.637979   16.64974399 16.72488599 16.61015401
 16.808837   16.965633   16.341651   16.682082   16.907114   16.37733899
 16.57436301 16.68569801 16.727496   16.63058699 16.703787   16.648256
 16.67591001 16.60455699 16.65421401 16.749545   16.71149999 17.08749399
 16.25355201 16.906695   16.628667   16.44463799]","Left/Right",5.06845436399453,FALSE,16.67164859975,10.0714298385099,14.4211454772085,55.0703479745884,351.692051479006,-6.61483882312157,1.39005340604761,0.16222356329912,-0.063547601596213,-0.00752879322134353,FALSE,84.8385836265795,2.03612600703791,-9.53398208860657
"64","P4",4,964,464,NA,"Static","2",63,"nan","nan",243,184,294.707141156353,295.237883747015,299.226781283903,291.351892454223,282.24481615217,309.818855325801,304.886081299412,286.486020401821,0,0,"[16.44463799 16.28170899 17.22905201 16.04155499 16.676504   16.63938499
 16.769614   16.825735   16.429447   16.730042   16.71267001 16.57379999
 16.63952399 16.749827   16.58435501 16.799519   16.54436    16.823585
 16.75007    16.43723799 16.735793   16.59914599 17.60871601 16.248218
 16.31178599 17.04735401 16.233931   16.65541399 16.49004701 16.90594699
 16.59870401 16.60513999 16.75157    16.553134   16.754472   16.968857
 16.424603   18.557908   14.864396   16.56485599]","Left/Right",4.4839451549924,FALSE,16.6540655235,-15.111714169448,12.9930675948449,139.311022509573,398.890956901624,-51.7071411563528,-111.237883747015,2.94403757632211,-0.799545025489448,-0.0835175014265276,FALSE,417.154296451524,10.0117031148366,-0.713024935522606
"65","P4",4,965,690,NA,"Static","1",64,"nan","nan",-198,171,-195.545100217132,165.993588666315,-201.591723800011,163.122533775485,157.410402159888,-213.621835047864,-207.580286427405,160.279047359511,0,0,"[14.864396   16.56485599 16.34936199 16.694062   16.672718   16.794097
 16.566217   16.85841499 16.70146301 16.407027   17.04874    16.255988
 16.763885   16.559986   16.74087299 16.54258401 16.761066   16.648644
 16.701587   16.78002901 16.515896   16.72962699 16.53868701 16.70368899
 16.660719   16.682854   16.750831   17.01089001 16.57007501 16.34794199
 16.58478801 16.64891999 17.188364   16.372529   16.502314   16.718742
 16.718845   16.576796   16.73053    16.559247  ]","Upper/Lower",5.27985373299452,FALSE,16.60970699975,18.0767348307323,8.58318650642738,25.3992802742868,401.592129296647,-2.45489978286832,5.00641133368498,0.13382165719465,-0.00168580650318565,-0.000174908651112655,FALSE,256.499040343721,6.1559769682493,-3.94650348443565
"66","P4",4,966,35,NA,"Dynamic","2",65,"nan","nan",322,116,409.676610140309,111.525253084688,405.538187466761,106.725367109514,96.310199596793,396.558314693453,401.026860597188,101.49297393008,0,0,"[16.559247   17.39742199 15.83531201 16.796831   17.14173    16.327918
 16.544635   17.26337201 15.79641299 16.90676001 17.05486499 16.61606801
 16.276368   17.136403   16.292353   16.677698   16.928397   16.407002
 16.55939499 17.15905301 16.255783   16.66744299 17.094793   16.665838
 16.18824199 16.754392   16.637498   16.591277   17.063575   16.43055001
 16.513849   17.00599999 16.276529   16.80769901 17.12881999 15.88894801
 17.02667099 17.092932   16.010516   16.817414  ]","Left/Right",4.5088563010213,FALSE,16.66490027475,13.1182954468553,15.2150534878947,49.232355253771,401.832347588877,-87.6766101403088,4.47474691531228,2.10697739038069,-1.29271686204905,-0.134043968606742,FALSE,424.58545308531,10.1900508740474,7.95839615349206
"67","P4",4,967,821,NA,"Dynamic","1",66,"nan","nan",-106,154,-93.5954086837434,193.726013712574,-94.2217660567375,200.385500181027,213.65210065204,-95.4695549153756,-94.8430113832652,206.990634923553,0,0,"[16.817414   16.66865501 16.709139   16.96789599 16.378      16.567329
 16.77766499 16.55863701 16.751434   16.664322   16.61001799 16.724004
 16.72944    16.99772899 16.752134   16.356304   16.46736001 16.65725399
 16.71940801 16.581826   16.75254699 16.57096401 16.76026799 16.610609
 16.701115   17.042362   16.56370799 16.388331   16.75442001 16.576508
 16.66969499 16.68466401 16.60540199 16.73782701 16.600423   16.682813
 16.73406499 16.584571   16.71019501 16.70463999]","Upper/Lower",5.40725203069451,FALSE,16.67227737425,1.8741462316322,-19.9260869394658,-84.6268578339368,400.145877908422,-12.4045913162566,-39.7260137125741,0.998823963218657,0.92135688690997,0.0959396870175966,FALSE,215.150805054597,5.16361932131034,-8.99711408235767
"68","P4",4,968,309,NA,"Dynamic","1",67,"nan","nan",387,279,504.46381246707,333.927101447261,507.385014611307,327.929632346253,315.931983764271,513.228739051272,510.227617298617,322.093534417455,0,0,"[16.70463999 17.22353901 16.21642199 16.694479   16.92610601 16.371167
 16.64761099 16.642281   16.58077601 16.834822   16.520263   16.78886899
 16.56189701 16.765254   16.759102   16.82723001 18.631976   14.404448
 16.748162   17.030752   16.279185   16.519521   16.71957799 16.74605301
 16.573973   16.72056101 16.65773899 16.73587301 16.59948099 16.78827099
 16.500403   16.65150201 16.628406   16.728534   16.657486   16.61793
 16.972356   16.386833   16.68043001 16.78737899]","Left/Right",4.90462232771097,FALSE,16.67078225025,-8.76492658420221,17.9951176829896,115.969438701868,400.225138430882,-117.46381246707,-54.927101447261,3.11211931302661,0.0493304918985914,0.00513570229621215,FALSE,604.971939158983,14.5193265398156,1.25851882143102
"69","P4",4,969,833,NA,"Dynamic","1",68,"nan","nan",-376,350,-415.69376594213,363.343274988647,-410.587774820683,358.767732709905,349.873742520437,-400.662692245739,-405.637313533923,354.331562654359,0,0,"[16.78737899 16.72738901 16.598815   16.692573   16.596263   16.712718
 16.59371599 17.01001701 16.484167   16.56237    16.78069899 16.559467
 16.706504   16.71386001 16.693157   16.554289   16.74937799 16.54045301
 16.727988   16.670503   16.662279   16.61031001 16.672243   16.77081099
 16.537424   16.751492   16.608757   16.791908   16.522176   16.934357
 16.589544   16.566487   16.698198   16.535292   16.86205401 16.46981099
 16.694598   16.619734   16.97520701 16.53486199]","Upper/Lower",5.38848701800453,FALSE,16.671731225,-15.0310736963914,13.46953246821,138.136086137965,403.541334418555,39.6937659421303,-13.343274988647,1.00503508010645,-0.923184835597934,-0.0953211766323879,FALSE,552.104738725023,13.2505137294006,9.59926635098581
"70","P4",4,970,284,NA,"Static","2",69,"nan","nan",-299,254,-222.357955769845,305.306306054632,-215.741983788604,305.640888090678,306.314082303542,-202.430348463292,-209.104382246487,305.976563973937,0,0,"[16.53486199 16.622695   16.66279401 16.735518   16.952366   16.430056
 16.97960999 16.22940099 16.65762001 16.86264799 16.47459601 16.539348
 16.85456501 16.77313799 17.22675801 15.778627   16.85499199 16.62621301
 16.84694699 17.229534   15.82317501 16.786154   16.55535599 16.740088
 17.153305   16.316498   16.48070999 17.162951   16.305442   16.645818
 16.99607201 16.231562   16.752825   16.702811   16.73676699 16.633826
 16.674229   16.642627   16.562012   16.73418301]","Left/Right",4.99678754669731,FALSE,16.66271747475,-19.9276073065524,-1.00777624890935,-177.104912018403,399.156052553697,-76.6420442301554,-51.3063060546323,2.21351571740868,1.89925366192217,0.198257219802802,FALSE,377.696969819549,9.06472727566917,5.25256523075597
"71","P4",4,971,516,NA,"Static","2",70,"nan","nan",-15,-233,11.2906081752033,-262.232005597419,17.11210082056,-265.095230371567,-271.070719353367,29.2614316988195,23.262344373014,-268.12014696585,0,0,"[16.73418301 16.154896   17.02950599 16.293936   16.75521499 16.859183
 16.51868    16.61307701 16.65349299 16.72223801 16.64461099 16.699024
 16.649515   17.044092   16.65372899 16.511974   16.43371501 16.67230199
 16.657589   17.089467   16.49123601 16.42934499 16.761926   16.518645
 16.66071299 16.652583   16.690128   16.807119   16.511551   16.62714701
 16.67920999 16.83123001 16.49486599 17.006175   16.818423   16.172053
 16.7004     16.9671     16.39310901 16.83152   ]","Upper/Lower",4.42199648999667,FALSE,16.6608725995,-17.9708235236161,8.83871375594765,153.810339113697,400.675612424045,-26.2906081752033,29.2320055974192,0.943571294696113,0.875830338614191,0.0910784925361763,FALSE,262.4749561246,6.29939894699041,-4.60353852040709
"72","P4",4,972,237,NA,"Dynamic","1",71,"nan","nan",-153,-57,-223.348730174791,-101.729587866729,-224.163335325306,-108.371577995221,-121.438444244677,-225.765917735393,-224.971505007658,-114.961095688472,0,0,"[16.83152    16.75550999 16.671188   16.62132901 16.739329   17.02503
 16.23107    16.679156   16.62705399 16.846464   16.68430401 16.645824
 16.695877   16.58367499 16.58073401 16.61619    17.08329799 16.378417
 17.112156   16.152497   16.59391201 16.659438   16.720737   16.746291
 16.541965   16.67472601 16.65654499 17.19862    16.154823   17.766616
 15.87595    16.33441199 16.76730701 16.63132099 16.641846   16.97141801
 16.46607299 16.59085401 16.703421   16.75320099]","Left/Right",3.87080278099165,FALSE,16.67525244975,2.41718756060158,19.7088563779474,83.0078923143448,396.926140704584,70.348730174791,44.7295878667292,2.00075375894421,1.27105598756654,0.133427004970233,FALSE,245.425272370688,5.8902065368965,-5.01315000469931
"73","P4",4,973,227,NA,"Dynamic","2",72,"-302.0","-298.0",-302,-298,-363.920302644292,-349.090285566133,-359.351114286503,-344.262861750426,-334.761031786003,-350.357569798059,-354.766349937169,-339.418981639498,0,0,"[16.75320099 16.57944301 17.13887199 16.268067   16.81088    16.506513
 16.734052   16.54750701 16.800293   16.65315199 16.66295899 16.685376
 16.921937   16.27372501 17.25181    16.19138    16.59741699 16.899732
 16.46449401 16.668278   17.127046   16.15394201 17.109661   16.31126899
 16.887604   16.30236801 16.82742999 16.561326   16.77428    16.66368701
 16.76978599 16.581858   16.61752601 16.69971099 16.647725   17.113669
 16.21611101 16.67296799 16.612557   17.07890701]","Left/Right",3.71587905968772,FALSE,16.678462975,-13.5627328462322,-14.3292537801294,-133.425807254389,394.322091361525,61.9203026442917,51.0902855661328,1.92663969321273,-1.912080454206,-0.202043001573063,FALSE,504.283664372897,12.1028079449495,9.58881774129192
"74","P4",4,974,461,NA,"Dynamic","1",73,"nan","nan",194,201,147.376370219888,292.805951093186,152.933693560316,289.567644904419,282.744511575473,164.643011917961,158.876318801688,286.104819562467,0,0,"[17.07890701 16.71428699 16.86445301 16.354284   17.064125   16.34573699
 16.62125    16.630827   16.731653   16.71174601 16.825846   16.36145599
 16.69960201 16.719618   16.634214   16.677789   16.653153   16.758186
 16.538859   16.821016   16.46149201 16.95485899 16.46384801 16.93138199
 16.413744   16.557868   17.03067101 16.344184   16.666065   16.62611999
 16.843128   16.68313101 16.557273   17.05522099 16.261212   16.705705
 16.684609   17.017073   16.242022   16.94053301]","Left/Right",5.4919002976967,FALSE,16.6811787005,-17.266641698073,10.0614395177129,149.770230101422,399.336904575087,46.6236297801119,-91.8059510931863,2.4711954624753,-2.07611717651002,-0.216621307381118,FALSE,327.803476941254,7.86728344659008,0.588163752239944
"75","P4",4,975,911,NA,"Dynamic","2",74,"nan","nan",-19,164,-16.5977250548461,232.854676144791,-13.4251364624039,238.688572198306,250.415634840976,-7.0477267825416,-10.327678428125,244.384314862562,0,0,"[16.94053301 16.712543   16.76377101 16.736212   16.44994499 16.528983
 17.06457    16.34419701 16.675747   16.99293099 16.31246401 16.886186
 16.507316   16.926014   16.35697999 17.360297   15.970765   16.70870501
 16.70866    16.512649   16.93153899 16.44139401 16.865756   16.5055
 16.94651099 16.38525201 16.623027   16.723212   16.594058   16.687668
 16.67566299 16.720798   16.58480201 16.666229   16.75235    16.64859999
 17.053762   16.31628201 16.60347999 16.722657  ]","Upper/Lower",4.20121233769169,FALSE,16.67270020025,-9.54999827230454,-17.5609586961854,-118.538226233795,399.65013788779,-2.40227494515386,-68.8546761447911,1.6535176789813,1.47927382262643,0.154225917703566,FALSE,233.445464037089,5.60269113689014,-8.08615836893338
"76","P4",4,976,713,NA,"Dynamic","1",75,"nan","nan",78,-330,101.376658011761,-286.39093860254,96.2109367198083,-290.600203731563,-299.035058560507,85.8594601915239,91.0160726124383,-294.83321575473,0,0,"[16.722657   16.466099   16.911432   16.348661   16.97109101 16.37049099
 16.949386   16.45248701 16.691542   16.672214   16.886479   16.46807
 17.430992   16.182387   16.35416801 16.59660299 16.61656401 16.727528
 16.58107599 16.781906   16.613171   16.600116   16.92340101 16.53608499
 16.60400401 16.945925   16.364921   16.669936   17.007171   16.24728899
 16.899016   16.84044    16.75618099 16.26093801 16.688392   16.601788
 16.618914   16.762752   16.655371   16.83762899]","Upper/Lower",3.85066697369621,FALSE,16.665381825,15.5171978202366,12.6441199579675,39.1747171059251,400.359327891939,-23.3766580117606,-43.6090613974603,1.18750738289973,-1.09606607077955,-0.114071076740695,FALSE,303.804207514111,7.29130098033867,-3.23323917816048
"77","P4",4,977,721,NA,"Dynamic","1",76,"nan","nan",-274,-61,-312.604707974715,-62.5798033662163,-314.40039539324,-69.1422569354185,-81.865302170626,-317.881808558798,-316.097861405635,-75.3457541458567,0,0,"[16.83762899 16.387437   16.61744399 16.57260999 16.799559   16.66174001
 16.88156799 16.352372   16.993611   16.306707   17.169464   16.22385401
 16.61295199 16.785206   16.586151   16.700008   16.75019901 16.685009
 16.767632   16.452964   16.66193899 16.59825401 16.798165   16.95597799
 16.30596301 16.635308   17.15826399 16.31558701 16.522379   16.749466
 16.65047101 16.707759   16.56687999 16.76388    16.67741399 16.895138
 17.069853   16.045574   16.87666001 16.354144  ]","Upper/Lower",4.88558527069108,FALSE,16.6613297995,5.27710058408326,19.2854988044098,74.696724275127,400.017202304906,38.6047079747152,1.57980336621627,0.927288461988842,0.281103795123481,0.029280386100039,FALSE,318.807050168768,7.65136920405043,-4.30201976813748
"78","P4",4,978,1008,NA,"Static","2",77,"-509.0","-193.0",-542,-193,-512.468802242207,-144.448553293833,-506.752074822147,-140.737658721942,-133.525767872927,-495.641973640794,-501.118674553167,-137.080854235149,0,0,"[16.354144   17.09346699 16.521326   16.397491   16.73029501 16.608861
 17.192181   16.06957099 16.725511   16.61999301 17.02432599 16.342684
 16.70647001 16.811143   16.855733   16.273677   16.943678   16.49221699
 16.541406   16.630649   16.68309301 17.14632699 16.218149   16.972357
 16.28749599 16.71716801 16.693019   16.720585   16.563456   16.76126399
 16.768399   16.54143601 16.665027   16.66208199 16.67721801 16.77638199
 16.428196   16.78806799 16.881834   16.534501  ]","Upper/Lower",5.04837881769345,FALSE,16.66052199925,-16.826828601413,-10.9227854209053,-147.011221563444,401.370809326903,-29.531197757793,-48.5514467061675,1.36385363588785,1.22892320846013,0.12757562955739,FALSE,532.437468460141,12.7784992430434,9.16832396961591
"79","P4",4,979,388,NA,"Static","2",78,"nan","nan",339,-345,453.459453732252,-323.97214022112,458.414161730936,-319.894435660262,-311.268708064167,468.895048925437,463.626598852834,-315.60462107769,0,0,"[16.534501   16.704735   16.81560701 16.97201999 16.42446501 16.72179499
 17.036252   16.30248901 16.75731699 16.20833701 16.70864499 16.648319
 16.75263101 17.012467   16.62562099 16.36114701 16.897294   16.39474
 16.653899   16.62380299 16.686826   17.066539   16.32457301 16.72523
 16.60638    16.61479399 17.08019301 16.31607499 16.67793401 16.62382099
 16.69598301 16.62984199 16.782919   16.58385    16.993884   16.284739
 16.916597   16.84995201 16.206028   16.609773  ]","Left/Right",4.94767268501164,FALSE,16.66080040025,-15.4355951931846,-12.7034321569527,-140.545758325606,399.958127722712,-114.459453732252,-21.0278597788802,2.79299967112169,2.44176589947877,0.254377242915166,FALSE,557.300120059744,13.3752028814339,-2.48498856682005
"80","P4",4,980,447,NA,"Dynamic","2",79,"nan","nan",-475,-88,-481.114394402116,-111.280234557211,-474.741927748323,-113.657668188844,-118.312025876659,-462.266400033989,-468.384856556228,-116.029358096672,0,0,"[16.206028   16.609773   16.851648   16.49670399 16.64450801 16.69196899
 16.61036001 16.73948599 16.88023801 16.34811    16.76574799 16.56406801
 17.886298   15.74023601 16.885169   16.534971   16.427457   16.850271
 16.31369301 16.83307    16.664148   16.95669199 16.74609301 16.363299
 16.47021799 17.072327   16.56362301 16.68530899 16.969391   16.24675
 16.561244   16.552079   17.139498   16.219186   16.750368   16.79380999
 16.324999   16.95298901 16.84446599 16.404774  ]","Left/Right",4.64074192098633,FALSE,16.6540267,-18.8479943681273,7.03179131944854,159.540510037914,402.645013162413,6.11439440211615,23.2802345572107,0.577675134143217,0.0578110721255254,0.00598242767985125,FALSE,493.816110616111,11.8515866547867,8.00689376047496
"81","P4",4,981,1007,NA,"Dynamic","2",80,"nan","nan",-370,322,-374.424203297186,328.691984296715,-378.245039997797,323.564676815098,312.654772356835,-386.375030934314,-382.248637405226,318.192116679981,0,0,"[16.404774   16.53950801 16.527363   16.55044699 16.81712401 16.549311
 17.137905   16.73620399 16.21826201 17.146527   16.27346    16.527131
 16.779342   16.496248   16.74321199 16.62987401 16.62718999 16.65129501
 16.74372799 16.64418601 16.973301   16.477956   16.58219601 16.66362199
 16.67990199 16.666348   16.772506   16.448718   16.761394   16.72311701
 16.614005   16.637917   16.83743899 16.69956201 16.849725   16.196278
 17.140315   16.696746   16.16006301 16.76171999]","Upper/Lower",5.52050854869594,FALSE,16.65214802525,11.9508276371283,16.0372119398793,53.3067568112166,400.355981439259,4.42420329718612,-6.69198429671451,0.192533601477686,-0.0653362753502994,-0.00679981049983514,FALSE,498.228767290332,11.957490414968,0.767463845342987
"82","P4",4,982,958,NA,"Static","1",81,"nan","nan",542,141,589.123845571029,93.8076701166239,587.927590804728,100.19838556061,113.194417934075,585.494910801053,586.678484633882,106.871447455183,0,0,"[16.76171999 16.961645   16.378632   16.83517999 16.79983101 16.29894201
 16.705434   17.021986   16.43994599 16.62223501 16.704276   16.72745499
 16.46805    16.77404001 16.595665   16.83792699 16.449812   17.18134701
 16.143981   16.726905   16.69793899 16.683664   17.01738701 16.25211
 17.10408299 16.189082   18.62272101 14.736296   16.986521   16.51822399
 16.56604001 16.579898   16.707356   16.644331   16.99176899 16.798098
 16.24404899 16.868116   16.362215   16.727222  ]","Upper/Lower",4.626817634693,FALSE,16.6683032495,3.62893476997647,-19.3867478174509,-79.3977056081844,394.430612954936,-47.1238455710293,47.1923298833761,1.60059899569655,-1.32136827532721,-0.139586050533703,FALSE,596.545710229407,14.3170970455058,0.260493810606213
"83","P4",4,983,304,NA,"Static","2",82,"nan","nan",-103,-105,-134.918129282951,-122.910510424532,-140.956858862722,-120.127315337257,-114.529928309073,-153.101572243061,-146.842349989107,-117.414746447929,0,0,"[16.727222   16.245149   17.10510399 16.265492   16.637048   16.67342501
 16.69491599 16.573424   16.702505   16.986274   16.307696   16.748111
 16.665074   16.670842   16.910604   16.4331     16.60940501 16.643018
 17.123988   16.357931   16.70999    16.621741   16.598546   16.59395899
 17.06009901 16.323048   17.03357299 16.591751   16.35446401 16.70231299
 16.77099601 16.554834   16.914614   16.404312   16.993596   16.29271799
 17.081064   16.37059901 16.62198499 17.07237   ]","Left/Right",162.019425737992,FALSE,16.66867249975,18.1834429601098,-8.38058211545874,-24.7445427440106,400.387453386974,31.9181292829513,17.9105104245321,0.878397823141717,0.515775444789779,0.0536746178011148,FALSE,182.509986526848,4.38023967664435,-3.73897211360608
"84","P4",4,984,107,NA,"Dynamic","2",83,"nan","nan",-215,-206,-284.849718704283,-223.484469627508,-290.965514604519,-224.119688531206,-225.531736348633,-304.56050713778,-298.028193115053,-224.853255670106,0,0,"[17.07237    16.834788   16.55536301 16.67751899 16.706872   16.657621
 16.927177   16.732699   16.57957899 16.36068001 16.70678399 16.743349
 16.683989   16.78800001 16.440237   16.72324199 17.003589   16.257695
 17.07861801 16.41145599 16.61018301 16.623583   17.80227201 15.509733
 16.944102   16.341882   17.01522    16.445413   16.61016799 16.55502801
 17.017454   16.776672   16.460502   16.611735   16.580155   16.98139599
 16.445414   17.779042   15.466123   16.50752001]","Left/Right",4.18384553398937,FALSE,16.67563060025,19.7107884334964,2.04726672112449,5.92978016473347,396.12341453979,69.8497187042832,17.4844696275082,1.72811497637869,1.71077479308694,0.1799496834291,FALSE,362.056170242406,8.68934808581774,-8.1246258208309
"85","P4",4,985,275,NA,"Dynamic","2",84,"nan","nan",285,60,356.130432579951,165.239510585784,349.707892153189,164.74043556427,163.703549397582,336.364320472702,343.057338704229,164.223642381967,0,0,"[16.50752001 16.80750999 16.30851101 18.905151   14.44875699 16.75557
 16.96704101 16.34334099 16.625523   16.68184901 16.688444   16.72869
 16.571556   16.995741   16.27442701 16.72842199 16.68496801 16.63585099
 17.18035301 16.29188099 16.936268   16.527785   16.747128   16.409359
 16.600096   16.64320299 16.739528   16.617569   16.956729   16.45756501
 16.96830899 16.841017   16.170934   16.60781899 16.674667   17.000768
 16.613224   16.694391   16.26573801 16.766734  ]","Left/Right",4.87002827670949,FALSE,16.659248425,19.7661121072495,1.53596118820212,4.44334217347202,396.690556774216,-71.1304325799514,-105.239510585784,3.04855677062958,-1.89767738643272,-0.199323855209307,FALSE,392.597734160824,9.42234561985976,8.99514184389619
"86","P4",4,986,263,NA,"Dynamic","2",85,"nan","nan",125,-214,173.614589521565,-105.401172640427,175.568004950905,-99.0484191315475,-86.2372860615124,179.50731488499,177.520624354866,-92.698254397661,0,0,"[16.766734   16.451089   16.874019   16.597899   16.62809601 16.92105
 16.23382799 16.934603   16.64620799 16.71800901 16.68491701 16.53526799
 16.63046901 16.737539   16.57798099 16.980937   16.435005   16.565873
 17.07010801 16.375737   16.84900699 16.41948    16.844867   16.45922201
 16.728555   16.917562   16.510385   16.531869   16.831828   16.475935
 16.925851   16.54814799 16.686335   16.527471   16.848531   16.343845
 16.891062   16.614216   16.623534   16.946994  ]","Left/Right",5.0888716407062,FALSE,16.67225165,-5.8927253634248,-19.1638865789147,-107.092199251056,400.853834215067,-48.6145895215653,-108.598827359573,2.85560504343604,2.83417609363934,0.294597832148831,FALSE,203.104487613442,4.8745077027226,2.35002551068029
"87","P4",4,987,512,NA,"Static","2",86,"nan","nan",-447,331,-512.930620057661,367.215569740594,-506.174940737319,365.903779350982,363.419709347067,-493.382058209271,-499.751924435022,364.656584115959,0,0,"[16.946994   16.21116999 16.64454601 16.745856   16.781303   16.472576
 16.676742   16.734726   16.526108   16.688305   16.75323401 16.67015899
 17.03909501 16.73376399 16.55706401 16.619569   17.300519   15.702616
 16.74751499 16.670136   16.70256701 16.528721   16.725533   16.63307499
 16.59006701 17.11936299 16.75814    16.341307   18.662888   14.49075699
 16.84516901 16.519596   16.668884   16.68555899 16.60666101 17.36480299
 16.22933801 16.509059   17.04702199 16.1426    ]","Upper/Lower",6.82193737370835,FALSE,16.65982764975,-19.5485618483908,3.79586039352716,169.011283541682,398.437183160687,65.9306200576614,-36.2155697405942,1.8053383483509,-1.71900048859462,-0.179764899927081,FALSE,630.828895702033,15.1398934968488,8.72791392392671
"88","P4",4,988,323,NA,"Dynamic","2",87,"nan","nan",-479,83,-501.985473221266,125.505100579303,-496.192916684442,128.74824061479,135.218429874626,-484.636543329774,-490.343727785827,132.023088011035,0,0,"[17.04702199 16.1426     16.92688401 16.839602   16.280731   16.76083199
 16.605693   16.93412001 16.34816099 16.93425199 16.41211101 16.67060499
 17.06805    16.456287   16.48854799 17.05809    16.515405   16.757673
 16.27104499 16.863688   16.61948601 16.618521   16.609903   16.701514
 16.654836   16.637087   16.709576   16.91423199 16.411405   16.56401601
 16.75096199 16.65563601 16.89765199 16.439379   16.682209   16.84194501
 16.45651    16.745819   16.603407   16.81976901]","Left/Right",5.3967726950068,FALSE,16.6678815745,-17.3489298914926,-9.71332929532321,-150.756381796673,397.631238881578,22.9854732212662,-42.5051005793033,1.15972796783136,0.0170107134103443,0.00178250513572476,FALSE,517.436900111115,12.4184856026668,6.98882438406474
"89","P4",4,989,570,NA,"Static","1",88,"nan","nan",189,-281,152.71453463682,-240.804573059071,159.347866189953,-240.478546112587,-239.827356272381,172.596949312389,166.059448479744,-240.148673157724,0,0,"[16.81976901 17.08056299 16.59342901 16.355446   16.481659   17.147099
 16.37318599 16.723464   16.42090101 17.19077599 16.21073199 17.13400301
 16.27874401 16.783891   16.66858399 16.960195   16.207268   16.941348
 16.585109   16.812542   16.202235   17.178878   16.285857   17.05211001
 16.86834899 16.16853201 16.625419   17.32604801 15.97062399 16.710479
 16.753943   16.647075   16.510264   16.727391   16.91653101 16.57441899
 16.476798   16.779547   16.605531   16.849466  ]","Upper/Lower",6.01088431468816,FALSE,16.67495510025,-19.8824146755692,-0.977216786690235,-177.186187980697,397.930410745212,36.2854653631804,-40.195426940929,1.29961880176674,-0.822444040904,-0.0861168203761007,FALSE,285.146578965103,6.84351789516248,-4.7372413473091
"90","P4",4,990,861,NA,"Dynamic","1",89,"nan","nan",212,-238,266.431928909981,-238.434803078385,264.549316030616,-232.091349836492,-219.28332363251,260.748144307361,262.630828201744,-225.627016159092,0,0,"[16.605531   16.849466   16.51381899 16.62451601 16.944389   16.456236
 16.46114599 17.071072   16.69134601 16.40434899 16.726674   16.76022299
 16.36633901 16.79197999 17.191898   16.349574   16.459128   16.643193
 17.01383501 16.308843   16.642341   16.706173   17.01778    16.305047
 16.79947099 16.45388101 17.09044799 16.28048001 17.051897   17.09668101
 16.17557199 16.610169   16.37644001 17.009073   16.41574201 16.624554
 16.54631    16.86727299 16.53397801 17.03398   ]","Upper/Lower",4.47857275398565,FALSE,16.67177117525,5.68378460261977,-19.1514794458748,-73.4701410401612,399.419693534622,-54.4319289099813,0.434803078384931,1.30640797173818,-0.381684784145114,-0.0398165962523692,FALSE,357.543183492178,8.58103640381228,8.17269577136791
"91","P4",4,991,838,NA,"Static","1",90,"nan","nan",-417,-163,-463.278792083515,-139.868275228771,-464.118891704276,-146.303245283651,-159.713167553976,-465.869586815154,-464.976790637519,-152.874553982183,0,0,"[17.03398    16.669608   16.80470801 16.50022301 16.63174899 16.98350201
 16.35291699 17.33103101 16.32353499 16.41610901 16.823725   16.40660799
 17.15082501 16.223914   16.633643   17.06006999 16.414989   16.802012
 16.56042    16.592734   16.96044    16.356751   16.611017   16.67564899
 16.93631201 17.277287   15.678322   17.299342   16.673404   16.18099801
 16.685308   16.603467   17.116627   16.240004   16.80588401 16.51222099
 17.08235101 16.57083099 16.385764   16.541285  ]","Upper/Lower",4.40326549999008,FALSE,16.6727391505,2.59079473163911,19.8448923252048,82.5619760714472,400.120112619464,46.278792083515,-23.1317247712287,1.24170797438779,-0.406706929638962,-0.0423525874701698,FALSE,483.932199393502,11.614372785444,-3.94100487538113
"92","P4",4,992,882,NA,"Static","1",91,"nan","nan",-28,189,-9.35562165859404,248.476316943978,-9.47012263890807,241.935493466946,228.66851291455,-9.7023689736992,-9.58841439222312,235.178123572816,0,0,"[16.541285   16.24288299 16.91299101 16.337721   16.799602   16.697332
 16.908441   16.348812   16.99302299 16.667722   16.32238    16.661349
 16.64965801 16.66548899 16.73595    16.621239   17.023614   16.30072801
 17.19247299 16.227935   16.825885   16.32506899 16.806402   16.53886
 16.921494   16.679237   16.520092   16.85516401 16.85739    16.32847499
 16.753267   16.568085   16.833306   16.81685701 16.25880499 17.00688101
 16.39757899 16.80291    16.44361801 16.685041  ]","Upper/Lower",4.01450016400486,FALSE,16.65187609975,0.346747315105151,19.8078040294276,88.9971059560776,396.568704663378,-18.644378341406,-59.476316943978,1.49592312291502,-1.4350448824826,-0.150777245069964,FALSE,248.65238333598,5.96765720006351,9.58541074619424
"93","P4",4,993,77,NA,"Dynamic","1",92,"nan","nan",-497,-87,-431.447366365623,-112.609720808405,-429.958777787919,-119.040886950723,-131.963084880246,-426.967743843058,-428.43576277261,-125.620786022508,0,0,"[16.44361801 16.685041   17.191081   16.178506   16.717152   18.231914
 15.030187   17.204866   16.275302   16.598487   16.633466   16.656739
 17.136963   16.623124   16.26712301 16.64170199 16.69814301 16.983382
 16.36772099 16.599814   16.755573   16.60340501 17.100524   16.37792001
 16.98539899 17.294153   15.63039899 16.813621   16.455178   16.82140501
 16.590876   17.08428501 16.18869499 16.61433199 16.789535   16.779326
 16.380894   16.881023   16.508999   17.080654  ]","Left/Right",4.59682295900711,FALSE,16.67251317525,-4.47962252256457,19.3533640718417,103.032449092716,397.161431533122,-65.5526336343771,25.6097208084045,1.68906222855805,0.953577219062796,0.100040892627065,FALSE,445.901086749493,10.7016260819878,-0.267321731021319
"94","P4",4,994,605,NA,"Dynamic","1",93,"nan","nan",594,-277,616.931581931743,-284.541992916253,614.282097684461,-278.68565780759,-266.365620911782,608.708348389771,611.44435099619,-272.413193430018,0,0,"[17.080654   16.50520701 16.57726099 16.85425901 16.444957   16.99341099
 16.777718   18.11786501 14.76790699 16.665488   16.988926   16.338591
 16.70661301 16.619719   16.707934   17.10350199 16.22061701 16.862451
 16.661275   16.697995   16.426592   17.02315999 16.79232801 16.291172
 16.50099299 16.846753   16.59637901 16.856888   16.366029   17.03969399
 16.245363   17.096496   16.63350301 16.26389599 16.75095501 16.78177
 16.592898   17.05782099 16.215572   16.96964   ]","Upper/Lower",4.35043923898775,FALSE,16.6760063,8.22323354197238,-18.1763720044704,-65.6573686748746,398.776318549527,-22.9315819317435,7.54199291625281,0.579359754949943,-0.391769021218468,-0.0409345000144707,FALSE,679.388491599288,16.3053237983829,7.25649934057801
"95","P4",4,995,853,NA,"Dynamic","1",94,"nan","nan",-136,-240,-150.882188364228,-240.380654067333,-146.670566705065,-235.111745637245,-224.868119406403,-138.482480183039,-142.627536639173,-230.053752084826,0,0,"[16.96964    16.253981   16.876893   16.418916   16.695383   16.97837099
 16.23209601 16.859221   16.627406   16.841737   16.623431   16.754079
 16.344141   17.053545   16.28939201 17.015131   16.84994399 16.04763401
 16.93271799 16.55162101 16.53917099 16.714592   17.09936101 16.30396
 16.59793999 16.793068   16.52916601 16.73383999 16.82647401 17.057547
 16.25695    16.71834501 16.66465199 16.589284   16.658016   16.953129
 16.60243599 16.34208001 16.711098   16.609768  ]","Upper/Lower",4.61898448970169,FALSE,16.66290392525,-12.3997081811891,-15.5125346609306,-128.636559611186,397.275538685502,14.8821883642284,0.380654067333353,0.357289337293678,-0.230146812970336,-0.0241380342020555,FALSE,283.810312736196,6.81144750566871,9.53789315539367
"96","P4",4,996,608,NA,"Static","2",95,"nan","nan",295,82,319.712415823494,69.596105472757,325.042046770217,73.4563521766397,81.2651943590731,335.823286972226,330.605230618668,77.4857610285381,0,0,"[16.609768   16.25154201 16.73526999 16.56790101 16.69014299 16.489645
 16.695953   16.95580399 16.64980901 16.679664   16.787614   16.569827
 16.283755   16.793369   16.510873   16.67853601 16.663074   16.858705
 17.00943899 16.194122   16.985555   16.352324   17.135442   16.24159499
 16.843381   16.440718   16.738205   16.62517    16.96714101 16.38975099
 16.577909   16.74372199 16.669246   16.60657501 16.64832499 17.030216
 16.289312   17.010176   16.51191601 16.64972199]","Upper/Lower",5.08779572800267,FALSE,16.6532803495,-16.110871148732,-11.6690888863162,-144.084220994264,398.177976199184,-24.7124158234937,12.403894527243,0.663616316013334,0.305712641997301,0.0319907868121654,FALSE,327.199704658592,7.8527929118062,-8.79473129909151
"97","P4",4,997,761,NA,"Dynamic","1",96,"nan","nan",-214,161,-209.593858909229,168.17100970231,-203.084904370555,168.000649199875,167.648220041148,-189.619662489629,-196.280194713492,167.82254782442,0,0,"[16.64972199 16.85236501 17.54979001 15.718232   17.142211   16.14878699
 16.872316   16.654626   16.555157   16.49153001 16.76682    16.66466499
 17.02444801 16.59503899 16.346996   16.93384901 16.58273699 16.53196401
 16.63360299 16.79397501 16.52884699 17.15502    16.377049   16.867682
 16.214239   16.77074199 16.84281    16.71463001 16.37917799 16.65259601
 16.653869   16.762991   16.852937   16.435133   16.595826   16.81848599
 16.65326201 16.87060999 16.424887   16.89344   ]","Upper/Lower",4.429105342002,FALSE,16.67432664975,-19.9741964195997,0.522789661162506,178.500725459307,399.437155106764,-4.40614109077131,-7.17100970231044,0.201995981767832,0.101208199001942,0.0105573761424884,FALSE,268.721183007139,6.44930839217133,7.64231875863357
"98","P4",4,998,515,NA,"Dynamic","2",97,"nan","nan",-486,-225,-486.522284128192,-218.02300314409,-479.722205198957,-216.825989350487,-214.539056084004,-466.73043618086,-473.379102275353,-215.709416767607,0,0,"[16.89344    16.942737   16.231685   17.078069   16.314108   16.74430601
 16.86888    16.36800899 16.811259   16.84516401 16.403652   16.680587
 16.63537399 17.032413   17.38219301 15.871877   16.358569   16.676766
 16.91322601 16.406974   16.542845   16.72569    16.692174   17.00468799
 16.714304   16.333947   16.722991   16.897904   16.74849799 16.30781601
 16.78388499 16.82554401 16.38344199 16.647189   16.79831301 16.743268
 16.810822   16.27144001 17.08147899 16.605793  ]","Upper/Lower",3.92718812800013,FALSE,16.67753300025,-19.791847947332,-3.48394706008602,-170.016537001356,401.661069012054,0.522284128191927,-6.97699685590987,0.167916434939085,0.0166844155685715,0.00173077262313155,FALSE,533.139721698994,12.7953533207759,9.30852611109099
"99","P4",4,999,610,NA,"Static","1",98,"nan","nan",-620,-63,-588.573720583565,-59.9804283924398,-587.325481619321,-66.6508487396724,-79.7660544723389,-584.871226869637,-586.098933463498,-73.2053563378359,0,0,"[17.08147899 16.605793   16.907107   16.321573   16.93554901 16.35088799
 16.987818   16.28548601 17.161179   16.47258099 16.646691   16.52337401
 16.853918   16.55309    16.88742099 16.226031   16.641817   16.95511301
 16.804506   16.414171   16.988335   16.418432   16.79251299 16.613502
 16.46462201 17.010988   16.30266399 16.989358   16.376724   16.986717
 16.44959299 16.556053   17.115412   16.235724   16.73687399 16.58234
 16.679504   16.65706    16.878576   16.464696  ]","Upper/Lower",4.49595272369334,FALSE,16.67288179925,-3.70249371392822,19.785626079899,100.599201042205,402.431330160788,-31.4262794164352,-3.01957160756016,0.757704307745544,0.0674981851526548,0.0069885820774365,FALSE,591.622072231692,14.1989297335606,0.800032242548322
"100","P4",4,1000,886,NA,"Static","1",99,"nan","nan",233,-280,291.183484415667,-296.86297470984,284.732488993539,-298.40613782296,-301.470893360663,271.920671645409,278.245395234814,-299.957936133881,0,0,"[16.464696   17.004535   16.23269801 16.80497799 16.595437   16.659842
 16.736137   17.44555001 15.66809299 16.70822001 16.542905   17.195956
 16.17012301 16.47553599 16.71185401 16.780094   16.510831   16.75734299
 16.60071401 16.774684   16.57096299 16.601467   16.826001   16.75893701
 16.55002999 16.69458101 16.567175   16.843441   16.586855   16.58727501
 16.67697099 16.70837701 16.78681999 16.52562201 16.592958   17.005966
 16.34821801 16.72971    16.58331799 16.79695   ]","Upper/Lower",3.94171636000101,FALSE,16.65454652575,19.2628127702586,4.60791865082268,13.4530993457884,396.413947610233,-58.1834844156672,16.8629747098402,1.45386876928154,-1.26393143337848,-0.132850546862907,FALSE,415.831032211431,9.97994477307435,4.94343796477202
"101","P4",4,801,340,NA,"Static","2",0,"nan","nan",435,116,525.628625344301,122.104738092557,525.619356111837,128.619045099603,141.977043575873,525.600348964493,525.609628628542,135.455405373743,0,0,"[16.660828   16.728335   16.51053    16.90595101 16.489566   16.278479
 16.848446   16.82561399 16.376707   16.812267   16.797513   16.408007
 16.75877901 16.55294299 16.717433   17.039689   16.65901    16.649679
 16.27850201 17.075721   16.557785   16.801794   16.684866   16.57321799
 16.628654   16.416292   17.08983901 16.23502    16.76434399 16.74699201
 16.72829399 16.77924101 16.270151   16.931978   16.43161    16.93558801
 16.42375199 17.07623601]","Left/Right",6.50947754899971,FALSE,16.6697277110526,0.028276379808517,-19.872305483316,-89.9184736702591,397.373529331145,-90.6286253443011,-6.10473809255691,2.18001600039321,0.143418629375483,0.0150381839324749,FALSE,539.624887163288,12.9509972919189,-2.15895210119382
"102","P4",4,802,738,NA,"Static","1",1,"nan","nan",-194,-214,-181.241228634918,-201.298008746224,-177.074266258372,-206.45333949971,-216.965577751839,-168.577410598765,-172.769245499622,-211.779474920779,0,0,"[16.42375199 17.07623601 16.31913701 16.52557899 16.58485101 16.826034
 16.39680199 17.007909   16.324204   16.73253601 17.02860999 16.233648
 16.64986601 17.13307    16.321901   16.91306299 16.675206   16.274781
 16.71134301 16.859656   16.51680001 16.843012   16.451103   17.03487699
 16.576886   16.68151401 16.33712399 17.152042   16.57853101 16.65070599
 16.315079   16.719914   17.134134   16.46855701 16.321316   16.708025
 16.66747201 16.97697399 16.69057501 16.75072599]","Upper/Lower",3.7617927500105,FALSE,16.6648387755,-12.6638180361531,15.6675690056155,128.947994168848,402.956097512192,-12.758771365082,-12.7019912537763,0.432084544098825,-0.0445968244840403,-0.00461142301020057,FALSE,270.867626862808,6.50082304470739,-1.51059283687205
"103","P4",4,803,183,NA,"Dynamic","2",2,"nan","nan",-470,309,-442.97151883003,333.382918479026,-436.447245480759,333.752372076516,334.500432832926,-423.237053754815,-429.673767776465,334.1359375054,0,0,"[16.75072599 16.891933   16.417065   16.67245601 17.174721   16.56171899
 16.59060401 16.494474   16.50824801 16.92123899 16.41803801 16.939896
 16.67814401 16.57126899 16.740684   16.68047599 16.399153   17.028826
 16.579577   16.39779401 17.26351399 16.62660501 16.53649799 16.532954
 16.30651001 16.678705   17.18193    16.70315801 16.46318199 16.44358299
 16.43776501 17.16052499 16.660857   16.49247301 16.505879   17.10238001
 16.26554699 16.964261   16.330454   16.583105  ]","Left/Right",4.96269566299452,FALSE,16.66642317525,-19.7344650752148,-1.11751435390016,-176.758941924199,395.327391501223,-27.0284811699698,-24.3829184790259,0.873634782135131,0.680730855798665,0.0717475850852848,FALSE,554.407735180685,13.3057856443364,7.33175100285487
"104","P4",4,804,316,NA,"Static","2",3,"nan","nan",444,-90,534.043335384248,-30.4613945714871,532.987695218018,-37.1011966910913,-50.1682611212095,530.910205886458,531.959257904887,-43.5698973620736,0,0,"[16.583105   16.71874699 16.253849   17.067398   16.55645001 16.437382
 16.93215099 16.35146301 16.66873599 16.98770301 16.39609699 16.734536
 16.89346701 16.778701   16.49389199 16.74594001 16.67126799 16.444829
 16.512546   16.689663   17.02811501 16.29509099 16.746737   16.696445
 16.92255501 16.272764   17.224542   16.440274   16.38019099 16.98205
 16.34096699 16.63694701 17.091132   16.36767799 16.645205   17.052664
 16.703671   16.35807799 16.80588801 16.32764899]","Left/Right",5.41520783198939,FALSE,16.65591414925,3.13312949779015,19.7068665497224,80.9663411602375,399.345141953746,-90.0433353842483,-59.5386054285129,2.59073833555062,-1.75051748872647,-0.18264458743656,FALSE,534.91137642377,12.8378730341705,0.964988106884594
"105","P4",4,805,241,NA,"Dynamic","1",4,"nan","nan",450,-181,484.936646998598,-123.12794486348,481.737838338492,-117.251150377094,-105.53103196939,475.358439442227,478.626021401386,-111.534175539959,0,0,"[16.32764899 17.01753099 16.614764   16.745157   16.370465   17.00026401
