"","participant","protocol","trial","trajectory_id","practice_trials.thisN","noise_present","no_targets","trials.thisN","mouse.x.firstBadClick","mouse.y.firstBadClick","mouse.x","mouse.y","obj0finalX","obj0finalY","obj0penultimateX","obj0penultimateY","obj0preantepenultimateY","obj0preantepenultimateX","obj0antepenultimateX","obj0antepenultimateY","timingHiccupsInLastFramesOfStimuli","win.nDroppedFrames","finalStimFrameTimes","line_orientation","RT","anyHiccupsLastFrames","avgDurLastFrames","dx","dy","finalDirection","finalSpeed","xErr","yErr","euclidean_dist","amountExtrapolation","temporal_error","isOutlier","eccentricity","eccentricity_deg","velocityToFovea"
"1","P4",9,901,570,NA,"Static","1",0,"nan","nan",133,-224,154.296879484704,-240.726801119751,161.165401116067,-240.389214626992,-239.71965997435,174.788133996938,168.070006403405,-240.049854629609,12,12,"[17.73874206 20.79940098 18.97962298 20.81876202 23.25258893 18.04200001
 23.30800798 19.6428122  18.10681983 21.605646   17.86664315 19.48147197
 18.70718994 19.36744293 21.90851001 19.8677911  21.36863093 18.10257998
 20.17627703 17.91125908 20.67370387 19.22501298 18.64733105 19.64381407
 21.82819997 20.09814512 21.79931197 19.3055789  17.26538804 15.73673007
 16.52024081 17.70911901 17.11927005 16.76707109]","Upper/Lower",5.15165247139521,TRUE,19.3938563561765,-20.4912545122341,-1.00714114540133,-177.186187980697,352.620087534965,-21.2968794847044,16.7268011197509,0.649927334442686,0.490801793510067,0.0579946391385272,FALSE,285.931669802534,6.86236007526082,-4.77742466308717
"2","P4",9,902,755,NA,"Dynamic","2",1,"nan","nan",-116,337,-42.8151867339891,352.887453271227,-32.5772925646293,354.462902692349,357.471010279872,-13.0294183401571,-21.9590894539912,356.096875623431,26,35,"[19.64381407 21.82819997 20.09814512 21.79931197 19.3055789  17.26538804
 15.73673007 16.52024081 17.70911901 17.11927005 16.76707109 21.57367882
 20.32389422 24.49336485 24.70756113 23.71928282 19.46087019 24.82001786
 22.90935512 25.87295393 18.15428794 20.7806211  16.20073593 20.50861204
 18.51976593 18.30466301 15.87906503 21.38378401 20.78601997 23.28128507
 24.72276497 25.1727479  24.52124003 26.89983998 20.70746105 23.36233994
 22.847577   26.14470199 26.81081998 27.74442011]","Upper/Lower",4.98153557954356,TRUE,21.3601650255,-29.7857683938319,-4.58355700864564,-171.251712273806,470.289332668242,-73.1848132660109,-15.8874532712268,1.79734653447641,1.79399446038299,0.158944215805455,FALSE,355.475308413002,8.53140740191204,-0.306652422987508
"3","P4",9,903,398,NA,"Static","1",2,"nan","nan",187,111,198.691470103628,161.589712097577,197.526743892231,170.367626140131,186.052544459146,195.445539245977,196.517162796147,177.976295021883,22,49,"[24.52124003 26.89983998 20.70746105 23.36233994 22.847577   26.14470199
 26.81081998 27.74442011 18.00276502 20.08684119 20.86311998 17.6538208
 19.46340315 18.25544704 16.39575884 15.92014614 16.70017489 20.10959317
 22.41251199 21.61326399 25.68090684 26.60559211 21.81909489 19.61636799
 19.09745298 22.16945612 20.34362592 20.88118298 18.01239001 23.606929
 17.62131811 16.731838   17.078751   19.85735307 18.45450001 19.74782581
 20.35433915 19.33083986 22.03607606 18.43499998]","Left/Right",5.27380357030779,TRUE,20.84990215425,3.24593085765093,-24.4628323615693,-82.4416736327112,394.522094772199,-11.6914701036284,-50.5897120975766,1.2461546610837,1.16669567584382,0.123218244227601,FALSE,256.104539881117,6.14650895714681,-5.02485204932067
"4","P4",9,904,677,NA,"Dynamic","1",3,"nan","nan",261,350,282.597235975977,371.420505026028,277.960415897871,367.340623836675,357.631273843617,266.925656084113,272.036840295066,362.128542222876,9,56,"[19.74782581 20.35433915 19.33083986 22.03607606 18.43499998 19.5804711
 17.48147095 18.2986029  19.23927618 15.98154381 21.27219597 25.76175006
 16.909956   18.69953494 17.02693501 18.96252809 17.44063711 20.17909498
 18.20236398 17.40717492 20.21246613 18.01284286 16.55982714 21.35446784
 17.00757002 16.5087271  19.99584003 17.73527381 21.44054417 18.66168482
 17.06791599 18.35649717 18.37843889 17.41755893 18.22351408 18.34812597
 17.06037996 19.45677516 15.79958992 17.94678508]","Upper/Lower",5.04149186634459,TRUE,18.69731104825,15.6715798918638,13.789231182411,41.3441524654626,372.146519045395,-21.5972359759772,-21.4205050260281,0.730041433842184,-0.72874092875213,-0.081592071430791,FALSE,466.705891686672,11.2009414004801,9.41093544877816
"5","P4",9,905,433,NA,"Dynamic","1",4,"nan","nan",-569,-325,-543.209679990693,-322.263636871086,-539.012837174643,-317.318239143456,-304.172794569008,-527.857138954895,-533.489971475723,-310.810307187323,17,73,"[18.35649717 18.37843889 17.41755893 18.22351408 18.34812597 17.06037996
 19.45677516 15.79958992 17.94678508 23.20857509 27.76231011 22.33936684
 21.6247451  17.01915683 28.75922318 16.85857796 24.46117508 19.30346689
 19.33708997 18.42292794 17.21706404 20.50128602 21.52457391 21.42010513
 22.88750792 20.07625811 20.041632   18.36027601 17.43009686 18.75355816
 18.35114392 20.26525605 18.97778106 16.90758392 20.77276399 19.43913195
 21.47118398 21.53702709 16.63432503 20.543508  ]","Left/Right",5.46786368242465,TRUE,19.8299085825,-15.3525410357983,-18.0908423020782,-130.31913690269,398.845012951679,-25.7903200093066,-2.73636312891392,0.62244188055504,0.450571928320688,0.0470704903836163,FALSE,631.60953767733,15.1586289042559,9.07687056395788
"6","P4",9,906,155,NA,"Dynamic","2",5,"nan","nan",371,301,407.277604446454,323.53832079893,416.249536456011,321.54949179882,318.629080608797,429.423987670968,422.37511092643,320.191621483249,14,83,"[16.90758392 20.77276399 19.43913195 21.47118398 21.53702709 16.63432503
 20.543508   21.69449604 16.90738811 19.92033492 20.08807193 19.84535018
 24.53077398 17.69387187 20.36113804 18.83102511 19.102155   20.86536493
 16.36348991 21.19319304 18.70403206 19.27644596 17.70080905 17.91724493
 18.46763003 20.77417192 15.99740912 20.40874003 19.87567497 19.80290888
 19.26021907 17.77862501 22.5729181  18.13301281 16.33935911 18.53646804
 18.19156297 15.72627388 22.90579001 17.87305018]","Left/Right",4.22044536820613,TRUE,19.27361307875,-22.1463832245138,4.90924019013357,167.501220073904,392.314948563463,-36.2776044464542,-22.5383207989302,1.02501088850505,0.732963136127,0.0778459520438538,FALSE,520.146221854042,12.483509324497,-6.04640303213445
"7","P4",9,907,704,NA,"Static","2",6,"nan","nan",-479,120,-589.889606248908,139.477453765761,-587.695822398516,147.949474441574,162.536045913873,-583.9187087496,-585.879139959131,154.965193508477,15,97,"[18.13301281 16.33935911 18.53646804 18.19156297 15.72627388 22.90579001
 17.87305018 17.92474091 18.37391802 21.34533599 19.91025405 21.13286895
 20.1415231  22.40912686 18.00616016 21.58005093 18.17576005 21.67154802
 17.40820799 21.54359384 19.55852914 26.99176199 14.21202789 17.78847515
 20.127255   20.97222488 18.24364997 20.12040094 17.66920718 18.18433194
 20.12749296 17.42397994 26.1893312  12.68952596 16.97156788 18.88475195
 19.56817601 18.10476207 21.98291896 16.15295606]","Upper/Lower",5.34169504977763,TRUE,19.2322983235,-5.97089749930888,-23.0585921481118,-104.517559641972,412.831852554933,110.889606248908,-19.4774537657611,2.70209262684304,-0.214605253879633,-0.021659873197716,FALSE,606.154854529329,14.5477165087039,0.203473131162349
"8","P4",9,908,184,NA,"Static","2",7,"nan","nan",438,-42,569.262661669927,-49.0022593840441,569.420590522098,-40.6959406069942,-21.5015216440797,569.785535889144,569.577934599852,-32.4203782284286,17,112,"[17.42397994 26.1893312  12.68952596 16.97156788 18.88475195 19.56817601
 18.10476207 21.98291896 16.15295606 17.89425313 21.64187282 16.58490114
 24.64831085 17.15163304 18.52412103 19.6364799  16.74077613 20.90246696
 18.8676801  16.47455292 19.30895797 19.08468595 19.12109507 22.65224303
 16.84777299 25.18108394 19.83693312 23.25968794 24.82746495 20.03907505
 23.57421396 19.17388011 28.05064479 16.66858117 28.805512   18.21352192
 27.06852509 20.95799404 20.72493499 23.99446978]","Left/Right",3.81299000256695,TRUE,20.36065739775,-0.522874219216988,-27.5007377399643,-91.0892390257621,450.308119278769,-131.262661669927,7.00225938404409,3.1547831556938,-0.108137645103074,-0.010005893786336,FALSE,571.3678319579,13.7128279669896,0.641356323411256
"9","P4",9,909,678,NA,"Static","1",8,"-209.0","-281.0",-209,-281,-210.158053834502,-343.204052840692,-207.324049725533,-333.34553385548,-318.288140203243,-202.995537953654,-205.573376779696,-327.255548869638,17,124,"[16.66858117 28.805512   18.21352192 27.06852509 20.95799404 20.72493499
 23.99446978 19.35723401 18.91686092 15.92947217 18.57568184 17.81764603
 20.27114201 19.43353517 15.86894481 18.57818197 18.89825519 19.9624158
 22.52833615 17.14696595 18.68209196 17.41669304 16.40807791 20.54256503
 20.10107413 16.05565194 22.27922599 17.67767011 23.64388993 21.55352989
 16.79867203 19.86732613 19.33983201 20.49811999 22.29267685 17.29381201
 22.81114808 16.61579497 24.29840295 21.31141815]","Upper/Lower",3.8959941372741,TRUE,19.88014710275,-7.16251588084825,-24.9159126374493,-106.038224967197,434.687848998564,1.15805383450177,62.2040528406924,1.49315595984176,-1.44246880068628,-0.138266728259663,FALSE,402.436863964749,9.65848473515398,9.2534162429644
"10","P4",9,910,987,NA,"Dynamic","2",9,"nan","nan",38,245,114.392041379012,295.811459667757,120.56790138217,299.350909730585,307.774256859219,135.265498947053,128.552997572682,303.92725200498,10,130,"[22.29267685 17.29381201 22.81114808 16.61579497 24.29840295 21.31141815
 16.00378705 23.73923594 17.09663519 19.92488489 18.4853361  18.01502286
 18.62351596 18.95913901 17.84706814 19.26231897 17.74811489 16.96635014
 19.59561487 17.52767805 21.30815201 18.55222601 16.62125904 19.96722794
 17.26161991 17.83617819 20.28365294 17.80231996 17.775035   18.54453003
 17.00141397 21.64093708 19.72497092 17.76818209 19.70763691 18.61314406
 19.29801702 22.95705001 18.12408003 20.26752685]","Upper/Lower",4.03353651822545,TRUE,19.136827876,-20.8734575680409,-11.9627971914615,-150.182526195422,419.060486406065,-76.3920413790123,-50.8114596677572,2.20193276230261,2.19706107119905,0.218451069164405,FALSE,317.159201035737,7.61182082485768,-7.45630303204851
"11","P4",9,911,730,NA,"Static","1",10,"nan","nan",74,-205,127.485530594143,-209.182514108225,130.578960594568,-200.118257252493,-185.430319436877,135.59162828552,132.465599240276,-194.59009683629,12,140,"[19.72497092 17.76818209 19.70763691 18.61314406 19.29801702 22.95705001
 18.12408003 20.26752685 17.27920398 16.39792486 17.75402506 19.32097808
 18.37450592 16.78928011 18.70913384 16.69557602 19.11679003 19.64578615
 15.92134591 26.47303999 26.23316296 28.10232807 26.11027099 25.46972106
 17.74184895 25.77199694 18.28125399 16.66167495 17.302091   15.66318399
 18.92437204 20.21426312 17.576518   25.01325496 19.38317507 18.44361681
 22.68676017 16.20740583 23.72603002 17.92305219]","Upper/Lower",4.36379222036339,TRUE,19.90935447375,-8.10609769137665,-23.752194671348,-108.843635859256,420.193131348016,-53.485530594143,4.18251410822515,1.28757157259263,0.319602271616977,0.0316920014248037,FALSE,244.96915054657,5.87925961311768,6.1445762669122
"12","P4",9,912,980,NA,"Static","2",11,"nan","nan",-320,-162,-393.743351119935,-108.825160721504,-400.479826499141,-111.925779070381,-117.326534715498,-412.213633546251,-406.338430030783,-114.622336630002,4,143,"[16.20740583 23.72603002 17.92305219 16.17485192 16.88391506 15.17359912
 16.59168792 16.39820007 17.26268488 19.457157   16.25647396 16.41127118
 16.836141   16.63376694 15.26393997 17.42145605 16.3636019  16.74549305
 17.924377   19.03592004 17.81766186 20.53030906 17.0487971  19.06413492
 20.0751489  17.23759016 21.09881002 17.70709781 16.37911703 18.5535911
 16.98185992 17.22715213 18.26431393 16.53498807 17.71408087 17.45361416
 15.98981279 16.4005491  18.43952108 16.49542991]","Upper/Lower",3.58336713700555,TRUE,17.5426151255,18.4702824263165,8.50137399399432,24.7153432108461,386.351511890353,73.7433511199349,-53.1748392784959,2.18197427372884,1.07412558408373,0.115840707989405,FALSE,408.505498319444,9.80413195966666,-9.47475303424119
"13","P4",9,913,959,NA,"Dynamic","2",12,"nan","nan",213,-269,239.79670464301,-266.673416358964,241.979029162533,-259.74471492872,-245.370684236419,246.506399830758,244.309808614276,-252.344681259845,2,145,"[16.4005491  18.43952108 16.49542991 17.34373206 16.35682792 17.65133021
 15.97671886 16.43000799 16.39531413 16.73179399 15.49196988 17.87622203
 16.3564519  15.54472512 16.47497993 16.09327598 17.4027821  19.44322698
 16.54072199 16.0081631  15.92022483 15.80727799 15.7551032  20.34453978
 17.79136015 17.55736792 18.52076803 16.99114311 17.78905583 20.69839602
 16.86804299 18.89292314 18.3267449  16.6414089  19.46999901 19.81499908
 18.47320003 19.37313308 17.14640483 19.50319204]","Upper/Lower",4.87044080230407,TRUE,17.428475728,-6.70969518774862,-21.302732122545,-107.482799123973,427.163421774354,-26.7967046430098,-2.32658364103577,0.645540385870738,0.246464735102047,0.024040831773302,FALSE,358.632361270157,8.60717667048377,4.88028475741941
"14","P4",9,914,534,NA,"Static","1",13,"nan","nan",7,-248,66.6445702579257,-229.794175143065,58.0419534892766,-222.586257739595,-213.685652392229,47.4191213275883,52.6939925647816,-218.105335055554,6,151,"[19.81499908 18.47320003 19.37313308 17.14640483 19.50319204 18.3967941
 17.0366969  17.27851015 19.25840904 17.86267082 20.33990109 19.65596806
 15.51017887 18.82455708 18.20243988 26.21166222 13.25353491 17.55215507
 17.41700782 18.99916702 16.38226304 21.04309201 16.58375491 16.82154601
 19.40293401 18.6339051  16.23107609 20.86519683 16.54153503 19.60395207
 19.65666306 16.59595082 18.78905017 20.56069789 17.41949609 18.58919999
 17.35383389 17.33339415 28.43248681 12.6675521 ]","Upper/Lower",4.43968335329555,TRUE,18.490454054,19.2254489303375,-16.1085227508365,-39.9587994720787,452.159684948967,-59.6445702579257,-18.2058248569346,1.4966702536982,-0.81661204118439,-0.0752510735667567,FALSE,239.263164056955,5.74231593736692,7.97110135185228
"15","P4",9,915,189,NA,"Dynamic","1",14,"nan","nan",301,-195,352.160557319294,-194.079862715655,356.174633933185,-196.279608877101,-202.605488864327,367.720658910591,362.065718345107,-199.507238564146,2,152,"[28.43248681 12.6675521  17.3309911  17.98015088 16.08902914 16.70658891
 16.09882596 15.53332503 16.204844   17.70435204 14.38678592 18.61654501
 17.54128002 16.29695296 19.53922119 18.12970499 15.52460599 16.65652799
 16.49475098 15.36618895 16.42951509 26.72856883 15.33792703 16.88796305
 15.44582797 17.07564201 16.8577251  15.79139498 17.16417586 17.55883615
 15.8190059  16.8640241  16.95413585 16.77065296 17.64589618 16.79420285
 16.03254606 16.87937207 16.80328697 15.49018687]","Left/Right",5.43592325574718,TRUE,17.11578989625,-15.5601015912965,8.52562614867205,151.280967178075,345.542342502858,-51.1605573192942,-0.92013728434469,1.22805194679927,1.06619959647613,0.128565960584521,FALSE,402.099553895753,9.65038929349807,-9.59997107568793
"16","P4",9,916,463,NA,"Dynamic","2",15,"nan","nan",-611,-312,-611.182084735627,-295.08295288576,-609.250556924775,-296.828526705018,-300.209312498545,-592.253588738434,-603.335295564489,-298.005103101032,4,156,"[16.03254606 16.87937207 16.80328697 15.49018687 15.72650601 16.63843519
 16.12067595 15.11056395 18.62931391 17.33422396 16.79007616 17.14208699
 16.12897287 16.67140611 18.40476505 17.41660899 16.06258587 18.31571618
 18.75078795 19.66791996 20.50181502 17.60282507 19.59137782 18.40019203
 18.41310202 19.1634791  17.49896887 18.95706216 19.2973509  17.45746005
 18.33117893 20.61665407 18.16738397 18.06839998 18.96093599 17.51628192
 28.32934214 14.668972   22.01765007 18.98433082]","Left/Right",5.16951401345432,TRUE,18.06652,-18.9284959971936,5.12635961278539,164.846236670996,361.818310969323,0.182084735627313,-16.9170471142405,0.406032648243753,-0.110353063639333,-0.0127081581526022,FALSE,678.688065156274,16.2885135637506,7.25341314082991
"17","P4",9,917,151,NA,"Dynamic","2",16,"nan","nan",-314,-99,-279.544080644496,-186.715177843484,-279.75769987013,-180.088661332346,-167.518578013801,-280.16292204986,-279.969183609914,-173.528388073438,3,158,"[22.01765007 18.98433082 18.50011991 19.15383502 16.10636013 16.15663478
 17.07036421 15.59055597 16.41046698 26.27116488 12.77940697 17.09773298
 16.02516207 15.93053015 16.47390798 16.12839592 17.28272391 16.96898299
 15.59075317 15.75526898 16.99275593 17.21374108 20.17650101 17.39629498
 19.55570304 16.76039398 18.20834191 14.93092813 18.70207791 16.86688
 18.59178394 18.5722101  16.18976193 15.43341391 18.08625506 17.81266206
 15.45174094 16.40517893 16.32430218 15.11829882]","Left/Right",4.70277615217492,TRUE,17.27708934325,0.618841405364151,-19.1965998296829,-88.1535935495049,370.559563266262,-34.4559193555038,87.7151778434843,2.26175811579893,-2.13071556587366,-0.239583117116704,FALSE,336.165808285882,8.06797939886118,5.07210392372276
"18","P4",9,918,312,NA,"Static","2",17,"nan","nan",380,26,416.638462754737,29.475185063863,411.629673775147,31.9318155149551,39.6091378556671,395.976490156982,402.686175722151,36.3182789387087,9,167,"[18.08625506 17.81266206 15.45174094 16.40517893 16.32430218 15.11829882
 19.18849489 23.33506197 17.64313807 22.56363211 22.226003   21.71618701
 22.31370797 16.17205399 19.01071798 19.60468688 18.11222802 19.82016512
 17.03443285 19.98897013 27.12057205 16.78469102 16.08636882 20.0204812
 16.27169992 17.75595197 18.83842307 18.14003382 17.71240705 16.48510504
 19.22998112 18.58483185 19.72441096 18.22328917 17.28683291 19.99746799
 18.46354199 25.54711909 13.35931104 18.8001669 ]","Left/Right",4.90471280948259,TRUE,18.809015124,20.6619725977556,-10.1339527918041,-26.1262859674643,407.842484240343,-36.6384627547373,-3.47518506386302,0.883269735592033,-0.752751598000242,-0.0769038320642277,FALSE,417.679775882409,10.0243146211778,8.29931723348079
"19","P4",9,919,548,NA,"Static","2",18,"nan","nan",371,-319,467.878159231645,-375.810191570374,462.00091926161,-371.55796736552,-362.52922936602,449.521788977495,455.955554631954,-367.184103794107,9,174,"[17.28683291 19.99746799 18.46354199 25.54711909 13.35931104 18.8001669
 18.2195059  20.30496602 17.50252605 21.7985909  17.88769709 16.95236308
 19.38082092 17.38534914 20.60751989 19.83538107 16.21437701 19.53664282
 20.35940113 16.28054306 21.44741081 17.56653399 20.28970118 17.50200591
 16.73019608 19.94310203 18.31654692 17.75762602 18.97573401 16.14047284
 18.04007823 21.87273488 17.463319   18.68197392 17.27692899 17.42642513
 19.64368299 18.84221192 18.10418302 18.82085996]","Upper/Lower",3.72337518306449,TRUE,18.66404629575,18.3563702541501,-13.2809622043537,-35.8860012050719,404.646339777519,-96.878159231645,56.8101915703735,2.69535874179444,-2.68295763361045,-0.276265692806957,FALSE,600.119381435189,14.4028651544445,9.58782246942916
"20","P4",9,920,137,NA,"Dynamic","1",19,"nan","nan",166,168,175.366452785582,172.985358698873,176.29668198007,179.80983376809,193.276111008548,178.13224062789,177.163566933824,186.169594125901,1,175,"[18.82085996 17.84733101 15.86042694 17.08900905 15.77665308 16.590107
 16.63441909 16.12121379 17.24407007 16.89001196 15.88191115 16.97488385
 16.49206295 16.45132317 17.37577887 17.66015915 16.14930201 16.97600284
 16.50690101 16.44166606 15.71521303 17.96812005 15.67424391 25.89237294
 12.41986896 16.38094313 15.93045099 17.11338107 16.85396    16.27062098
 17.72616804 16.78450895 16.04941697 16.44383906 16.67615701 15.99047286
 17.96099008 16.15208504 17.19089597 17.47100591]","Left/Right",5.22720030834898,TRUE,16.861220199,-2.76578784230739,-20.2907523096753,-97.7620253060012,404.841875198497,-9.3664527855824,-4.9853586988732,0.254653729101306,0.148912882628067,0.0153262392626601,FALSE,246.327682339553,5.91186437614927,-7.60295319702161
"21","P4",9,921,836,NA,"Static","2",20,"nan","nan",-352,-256,-333.956807947636,-219.356272740555,-340.921683674718,-221.590870922376,-226.010212553587,-354.696046111465,-347.993235004067,-223.859694712265,5,180,"[16.67615701 15.99047286 17.96099008 16.15208504 17.19089597 17.47100591
 24.31208105 16.90772292 19.71760509 18.36499595 17.06167404 19.19767004
 18.78665993 16.47936599 21.14543505 16.96889009 17.57736085 18.05133699
 18.43591896 27.12137206 13.53206416 17.46578794 18.71138206 17.18845684
 20.56292095 21.31360816 16.13560994 18.48747605 19.154476   16.53920999
 18.50877306 19.89597687 17.71675004 18.69564201 17.42822002 16.94395789
 17.63584418 18.49349099 18.31911481 18.49418809]","Upper/Lower",5.2514331350103,TRUE,18.31981614825,20.7392381638285,6.65393981303228,17.7882252819835,396.301591000129,-18.0431920523639,-36.6437272594452,0.980281616422639,-0.681005561345688,-0.071600095399889,FALSE,399.555157600553,9.58932378241328,-9.250391239144
"22","P4",9,922,90,NA,"Static","1",21,"nan","nan",-455,34,-489.735014959921,116.22294568863,-490.402651186889,122.692522920983,137.694450766124,-491.950794155752,-491.209140717253,130.50762655528,3,183,"[18.31911481 18.49418809 16.35309309 17.15516183 15.19770804 18.7371301
 16.50958695 14.880704   17.34316512 16.27347991 16.86502201 19.93705193
 17.57275104 16.32628101 16.8114081  17.06926082 15.85451397 17.78887212
 17.3092261  15.86855692 16.16385696 16.43369393 15.55525512 17.8220009
 15.89872316 15.69678192 18.36749888 17.02188421 17.33226189 21.51633403
 17.45811501 17.4008389  20.58522007 15.40449192 20.07475519 19.59139388
 18.24159804 19.44569289 16.36288315 17.49971393]","Left/Right",5.12359871086664,TRUE,17.3634817485,2.21577919583132,-21.4715050774941,-84.1081453487279,414.385637696569,34.735014959921,-82.2229456886298,2.14221129203009,2.04850043559823,0.205977661993906,FALSE,503.337022264741,12.0800885343538,-3.1637967935766
"23","P4",9,923,958,NA,"Static","1",22,"nan","nan",550,106,588.336334357563,98.014767313627,587.094812281633,104.647312928665,117.099936295102,584.763851032361,585.97168102093,110.647382893351,1,184,"[17.49971393 14.92348802 17.9588059  15.88346809 16.71312703 18.23165989
 16.18050598 14.94391402 18.43736297 17.21620304 15.39370697 16.46332815
 16.22094191 17.33901794 19.45805899 17.86158001 17.33908104 17.2058579
 16.08558604 15.71147307 17.91261998 16.42088592 16.21997613 16.71508304
 17.21567591 15.51368204 25.00105696 11.40494598 15.97538008 16.53810497
 16.60984592 15.41002607 16.79032692 16.88927808 16.19208395 17.04453095
 16.36791416 15.44844103 16.80587488 17.42316503]","Upper/Lower",4.16314732097089,TRUE,16.77414447225,3.57248332520248,-19.0851689814747,-79.3977056081846,385.844822404825,-38.3363343575635,7.98523268637298,0.93981942971271,-0.357658514339188,-0.0386228795415342,FALSE,596.444915257762,14.3146779661863,0.191646951104784
"24","P4",9,924,819,NA,"Dynamic","2",23,"nan","nan",-255,169,-264.142972498549,188.423505995984,-269.707833729065,184.860023711018,177.90578942682,-280.567814405647,-274.993046914417,181.475615227482,4,188,"[15.44844103 16.80587488 17.42316503 30.96266603 11.77642588 24.29646114
 16.79401891 17.76459697 18.40999001 17.93624717 16.95774891 17.77319796
 16.25971403 16.93062903 15.51372092 17.73738209 19.73286783 17.98245008
 17.96210906 20.80194792 15.83533315 19.59121786 16.07626211 16.04955201
 16.76101703 17.24172896 15.91977593 18.45012489 16.18443802 16.04601508
 15.88106295 15.78668016 15.96442191 19.99181695 17.36590103 15.71849803
 16.321545   15.68956394 16.50984702 17.73803099]","Upper/Lower",4.46225087041967,TRUE,17.5098121975,16.4248419070987,10.5177165691639,32.6336380373687,371.292564207971,9.14297249854883,-19.4235059959837,0.515227252792683,-0.0665951245671955,-0.00747334346133644,FALSE,324.460979984015,7.78706351961637,-3.57518099337838
"25","P4",9,925,936,NA,"Static","2",24,"nan","nan",-233,-220,-286.089910062706,-266.21985794894,-280.627481399947,-263.616357063628,-257.712249960968,-268.240021096966,-274.108337110166,-260.509204736746,1,189,"[16.50984702 17.73803099 16.99734316 16.62207698 18.42741389 15.98598412
 16.0774109  15.93236416 16.99020481 15.61670098 25.36347113 12.42850302
 18.81297398 15.93619189 17.11302414 16.14985685 16.87478507 19.28153308
 16.36593207 16.98544482 16.99932804 17.2964721  17.54333987 18.18057895
 16.75022114 16.16034401 16.24352997 16.64328203 16.76158002 17.69011095
 17.96905394 16.51032502 16.71985211 16.35743701 17.18347287 17.82934996
 16.25226019 18.185833   15.10896999 16.758624  ]","Upper/Lower",3.9791392814368,TRUE,17.03382645575,-17.8498889657392,-8.50760798797188,-154.516613278538,386.949024371637,53.0899100627056,46.2198579489397,1.68937052179471,-1.62746067423902,-0.175244947410692,FALSE,390.794638404931,9.37907132171834,9.15788621841322
"26","P4",9,926,144,NA,"Static","2",25,"nan","nan",327,-300,351.187998854002,-290.98115587482,357.934669852889,-292.023541779681,-294.105092847936,371.407166132245,364.7959000328,-293.083627506513,1,190,"[15.10896999 16.758624   16.102592   18.24137592 15.6473571  16.57739002
 16.69805287 17.02534407 16.10891614 19.65127396 18.37240299 16.53186791
 15.7054211  15.60340496 15.01603401 17.00951089 15.80826612 16.81694505
 16.16909495 16.69449988 16.52580919 27.275      12.64643879 18.01185706
 16.11089497 17.34201517 16.79323683 16.92116703 18.11199612 17.80190994
 16.88524801 17.52255997 16.53834595 17.86849415 17.97003997 18.32191902
 17.06202282 17.8280042  16.7176188  16.72126609]","Left/Right",5.54473758023232,TRUE,17.06557970025,-20.219167278243,3.12393697311586,171.217035586014,399.616739807789,-24.1879988540018,-9.01884412518001,0.61955284733372,0.540654258412573,0.0563721649348971,FALSE,456.073506809291,10.945764163423,-8.24078532202143
"27","P4",9,927,807,NA,"Dynamic","2",26,"nan","nan",563,184,604.13754607781,260.341055528072,597.861806912467,258.039616161186,253.403029265475,585.218410612918,591.51880419219,255.713509900217,4,194,"[17.06202282 17.8280042  16.7176188  16.72126609 18.52155197 15.95985191
 17.69517595 17.31273206 16.62204694 17.89090014 17.63052191 18.07876094
 23.72203697 16.59721322 20.87912196 19.34711984 17.84694497 21.67374012
 18.08800292 18.23458006 18.06444302 17.560974   22.60480192 17.02538901
 16.50632196 16.51375904 17.13322499 19.17658816 16.59313682 16.93613105
 17.25270506 16.25677501 16.37494797 18.72159401 16.847166   16.36901405
 16.97287802 16.95719687 16.62189397 18.37706799]","Upper/Lower",4.61868743388914,TRUE,17.83238056775,18.9191354648925,6.93802626259699,20.1389994286001,376.677620198992,-41.13754607781,-76.3410555280719,2.08126561661692,-1.55775689145078,-0.172313229305987,FALSE,657.844692746235,15.7882726259096,9.58527663144497
"28","P4",9,928,928,NA,"Static","2",27,"nan","nan",-49,173,-5.70365860957112,205.767027246816,-12.0093503357885,210.658209438999,220.582467248189,-24.8036622009779,-19.0663874178002,216.132193199036,2,196,"[16.97287802 16.95719687 16.62189397 18.37706799 17.29853894 18.32093997
 17.42102811 15.84661799 17.32447301 19.28361901 15.27619595 18.86174013
 21.56279492 17.43425406 19.39557493 16.32723794 16.87016012 18.02414004
 17.66608399 16.58492791 17.17920997 16.48794697 18.43412104 18.2662271
 17.56528998 17.39336993 16.6384331  16.646615   17.04975986 18.60302803
 17.85430009 16.64285897 17.91500486 16.78989199 16.81056013 18.09072099
 18.03106209 22.10477297 18.93962687 19.72873206]","Upper/Lower",4.14797870349139,TRUE,17.73997239675,19.1000035914068,-14.8154400013738,-37.799922376871,454.199339836794,-43.2963413904289,-32.7670272468155,1.30314723702915,-0.339066001638197,-0.0311047349239536,FALSE,205.84606195778,4.94030548698672,-6.09182003620261
"29","P4",9,929,494,NA,"Static","1",28,"nan","nan",285,-290,296.474126121805,-320.368309405473,290.743224458404,-316.648388684005,-308.908172348697,278.818664234552,284.323283496991,-312.481213461741,8,203,"[18.09072099 18.03106209 22.10477297 18.93962687 19.72873206 16.37839107
 16.81176084 17.023277   16.0715261  16.78767102 24.51145486 22.86348515
 27.1571239  23.22110999 15.65794903 19.27328692 19.62883701 21.6672481
 18.28517695 22.27957197 20.42788919 19.40366486 19.06501106 19.15824902
 16.19739085 16.42545406 18.90455    17.16457214 17.05317991 17.082887
 17.05546794 17.24018296 18.59093504 16.91193716 16.52598381 17.49556512
 16.61000401 18.94091698 17.13628299 16.88024797]","Left/Right",3.8061244704295,TRUE,18.719578924,17.6554618872532,-11.4601370567759,-32.9875491466371,374.808194466911,-11.4741261218048,30.3683094054732,0.779128049148305,-0.627806432886217,-0.069791967615501,FALSE,436.50058548759,10.4760140517022,9.30540943003545
"30","P4",9,930,923,NA,"Dynamic","2",29,"nan","nan",-538,-93,-524.82833377552,-74.0024282058447,-523.855437735813,-80.8714557866506,-94.0679420179322,-521.986350875783,-522.890966721882,-87.6809993814299,1,204,"[17.13628299 16.88024797 17.54327398 17.21235807 15.32041305 17.59396284
 14.96360311 18.19358207 16.624721   16.14711178 16.59608516 15.88817406
 17.46195881 17.66030001 16.32391498 16.04836504 16.02226915 16.53603185
 16.03377005 25.90533998 16.67881804 16.59170701 16.65555895 17.03357906
 16.23704005 16.55937801 19.54345498 16.07020386 16.60817116 16.46995288
 16.46913891 15.87812207 18.49133801 15.93106007 17.66370097 16.18939405
 16.21220098 16.93059085 17.34880917 16.25739597]","Upper/Lower",4.75091668055393,TRUE,16.947784525,-2.84198289973722,20.0655138120875,98.0614782683552,398.592449657923,-13.1716662244801,-18.9975717941553,0.55481051046014,-0.407104913786822,-0.042556512938655,FALSE,530.019942373822,12.7204786169717,0.00594915765402326
"31","P4",9,931,778,NA,"Static","1",30,"nan","nan",-345,125,-298.758132205698,78.2207076330619,-304.587556904589,81.6468668859059,88.6273869898868,-316.464534389357,-310.187647725536,84.9382385004328,1,205,"[17.34880917 16.25739597 17.98361097 16.04729216 18.11256399 16.24641987
 16.83196309 16.47277107 16.70726994 15.99420607 17.47250604 16.64937986
 17.23364205 16.09298307 16.37100987 16.07314008 18.77278485 17.04178215
 17.41214306 16.69599488 17.83476211 16.48215298 19.12547601 16.44655596
 17.11959601 16.86130487 20.17890709 14.45852686 19.42788018 16.78358484
 16.97909413 17.20753405 17.02674292 17.03267591 19.23542912 15.71652689
 17.83353509 16.34548209 16.96895482 16.67235815]","Upper/Lower",4.25939492695034,TRUE,17.08886870725,17.706402183659,-10.4066793568248,-30.4442613525518,400.614605193166,-46.2418677943022,46.7792923669381,1.57864778152675,-1.52566122730406,-0.158679231811043,FALSE,308.828270502644,7.41187849206345,-9.2385490126431
"32","P4",9,932,539,NA,"Dynamic","2",31,"nan","nan",-336,99,-348.81725950091,94.0281099881908,-355.260493737518,93.9905706331856,93.9129141072604,-368.589417115909,-361.851385917228,93.9521709984294,0,205,"[16.96895482 16.67235815 17.23939204 16.47575712 18.76900694 16.42532297
 17.44394796 15.61683509 17.44229696 16.82319888 18.82894407 15.76969493
 17.2613191  17.39260391 17.37055206 16.61257795 19.25108698 16.94780518
 17.69145997 15.718373   16.44907193 17.40343496 18.32136093 16.29907405
 16.90688706 15.49243997 16.57105796 16.53996296 17.89205917 16.09142404
 16.86028694 16.46385295 16.22882392 17.23115519 17.517837   17.387375
 16.63048984 16.57999796 16.36416698 16.92129509]","Upper/Lower",4.90498638618737,FALSE,16.9718385495,19.7721576149986,0.115195880930344,0.333810970187206,388.339250531004,12.8172595009104,4.97189001180922,0.329947048612723,0.308304204902345,0.0330793462675546,FALSE,361.268274269519,8.67043858246847,-9.25442415414258
"33","P4",9,933,199,NA,"Dynamic","2",32,"nan","nan",-466,-218,-435.294604163756,-259.54769121549,-428.978492479736,-262.239605833027,-267.485970789045,-416.668805247657,-423.482825165236,-264.581848642705,0,205,"[16.92129509 16.70944993 17.316713   16.22500201 18.49556109 16.21324988
 16.08887617 16.674418   17.62125199 15.84606897 18.04670901 17.06815185
 17.1006762  17.02514384 16.46158309 16.48875093 17.97204698 16.568925
 16.83375519 16.00640384 16.09025802 16.065103   15.52822301 18.72769604
 15.45671793 15.55358106 15.61799995 15.74383094 15.42085106 17.95437513
 16.11575182 17.5421522  15.87845595 15.20724199 15.55695804 15.42491396
 18.27532006 15.15327301 16.9405269  14.797193  ]","Left/Right",5.7772093124222,FALSE,16.51836137825,-18.6257989160989,7.93827957355506,156.916390629485,408.573472298248,-30.7053958362444,41.5476912154898,1.23990419782648,1.06888071305073,0.109005354964904,FALSE,506.800154330454,12.1632037039309,5.6577147299795
"34","P4",9,934,197,NA,"Dynamic","1",33,"nan","nan",448,255,531.860597123519,274.242360593453,525.169301119799,276.933067874198,282.414723637793,511.537427609368,518.379614882634,279.663339884606,1,206,"[15.15327301 16.9405269  14.797193   16.82069898 17.8668031  15.51725995
 17.83593092 19.06694612 17.26344507 17.34456397 16.62243088 16.262491
 19.06928397 17.56577101 17.91801117 16.89600782 16.53350214 16.92019985
 16.87814319 18.5313148  17.22699404 16.56813314 17.15171593 16.98120008
 16.63154899 16.92496985 17.07186201 15.62939817 16.37437893 16.05300093
 16.18255815 22.44850178 16.77879109 19.86920694 18.44140817 17.5152868
 18.19683914 18.39100407 17.95178396 18.67136103]","Left/Right",5.00331653049216,TRUE,17.32159350125,20.323169514151,-8.17236304433965,-21.9060704112052,421.53098599226,-83.860597123519,-19.242360593453,2.0649581298627,-1.69503674235007,-0.167547661448901,FALSE,598.401677066881,14.3616402496051,6.2749960264493
"35","P4",9,935,240,NA,"Static","2",34,"nan","nan",-128,319,-97.4770940000513,346.904845602674,-100.676022676789,341.191393350185,329.431065570436,-107.260561782035,-103.99617750041,335.261424922449,1,207,"[18.67136103 17.52501912 16.24473091 18.7670961  15.73037799 16.36333088
 17.68551301 15.05413    16.58994518 20.06512182 16.2419281  16.55710209
 17.12312596 16.80520689 16.20731596 18.38106918 16.146407   16.01908403
 17.24713692 16.14445308 15.51257586 16.35684795 16.34938014 16.11092105
 15.5212169  16.03940502 16.74766303 16.77185087 18.60836404 17.66894897
 15.90004703 17.92606898 16.0891891  18.35690485 16.31640317 17.61902496
 16.82766899 17.08824607 16.30721986 17.17049303]","Left/Right",4.39282749942504,TRUE,16.871447378,9.78346778198335,17.4737800322373,60.7557893637568,395.662824769833,-30.5229059999487,-27.9048456026738,0.9925467457523,-0.94223263697607,-0.0992251249031915,FALSE,360.339778205668,8.64815467693603,6.7954378356329
"36","P4",9,936,706,NA,"Static","1",35,"nan","nan",444,-174,434.336751908751,-221.256004412868,427.081310777814,-221.01989170593,-220.57384008165,413.37471555345,420.368273301337,-220.801430357855,1,208,"[16.30721986 17.17049303 18.18870194 18.36093492 17.14641205 16.57920191
 17.67995418 16.89900691 16.9716829  17.66784699 17.45246002 16.93800814
 17.54732593 16.44874411 17.36250892 18.63304689 17.3624251  16.70229295
 17.34064706 16.45696396 17.36823004 18.25070707 17.06642983 16.70171297
 16.69987617 16.52845298 20.70455207 15.55331098 17.43436186 17.35782507
 17.31743896 16.053339   17.97803305 18.07630504 17.1538319  16.08336298
 17.35385996 16.83440199 17.81914313 17.76419906]","Upper/Lower",5.24811312835664,TRUE,17.282881297,20.9620363553016,-0.682164331218019,-1.86390995979311,404.506880579817,9.6632480912487,47.256004412868,1.15761340284372,0.194906497382573,0.0200765535705264,FALSE,487.44500566463,11.6986801359511,8.69126349189497
"37","P4",9,937,951,NA,"Dynamic","2",36,"nan","nan",-104,-328,-82.3800606629377,-327.459255759127,-76.5323556776106,-324.441169741693,-318.229704629077,-64.4973058826726,-70.4017993561026,-321.277100015285,5,213,"[16.08336298 17.35385996 16.83440199 17.81914313 17.76419906 17.85388216
 20.41818504 16.66617789 18.11695402 23.85252295 18.67534709 18.02769094
 19.64269113 23.87639601 20.61327291 16.27248898 16.82626689 16.40449907
 16.60731016 16.73858589 25.55243787 13.5318581  16.59085508 16.32613502
 17.19244197 16.91897283 17.96862506 17.67311408 16.523381   16.65504486
 16.38894202 16.72827802 16.78971713 18.82893592 16.55243197 16.73847204
 16.81506401 17.02909102 16.57245285 18.13076902]","Upper/Lower",4.2519483724609,TRUE,17.798856453,-17.8827547802651,-9.2295511300502,-152.701079998904,376.879148307253,-21.6199393370623,-0.540744240872812,0.519040815748471,0.467040974871469,0.0516346969766011,FALSE,337.662610570301,8.10390265368722,6.35110490108491
"38","P4",9,938,617,NA,"Dynamic","1",37,"nan","nan",117,-179,102.883759772271,-183.142220576623,97.2322351511758,-180.38212094548,-174.257198881762,84.6909676350244,90.5115736617698,-177.099874730237,1,214,"[17.02909102 16.57245285 18.13076902 17.27314317 16.34549489 17.341258
 16.93272195 18.50897516 16.96004183 20.12669807 15.29699797 16.82066498
 16.28724905 18.32125289 18.3409981  16.10871707 16.89057495 17.64381002
 16.12383593 19.05268407 16.52332791 17.24038203 16.56060107 16.73401007
 16.49176981 18.29308714 16.13750705 17.60260295 17.02942699 19.61229695
 19.1373399  18.92427006 16.385464   17.67085004 16.2823319  17.47540012
 16.32612199 18.64055195 15.93053015 16.69829385]","Upper/Lower",4.65202232543379,TRUE,17.295089923,18.1927921372465,-8.88502169486131,-26.0300237685442,390.216978306664,14.1162402277292,4.14222057662317,0.353074366353718,0.260797622772056,0.0278475007998307,FALSE,210.062231214026,5.04149354913662,7.89791896549168
"39","P4",9,939,741,NA,"Dynamic","1",38,"nan","nan",-244,106,-266.990560328452,122.075642564785,-272.464090820601,125.856821226708,133.30459492315,-283.245283689537,-277.97498441338,129.66381075404,1,215,"[16.69829385 16.48707711 16.19373588 17.4148411  15.12365486 15.26197023
 15.45055583 16.84996206 16.67458401 18.77224189 16.7691221  17.42164697
 17.26456499 16.18119003 16.42633788 18.6721331  16.40935405 17.0913199
 16.78939513 16.457455   15.50574997 26.784827   16.01750008 16.851258
 15.0937899  18.04176089 14.46038112 16.651568   16.63360791 16.47070912
 15.86796902 16.99379203 16.47228189 16.19617012 17.41555799 16.29160484
 16.11498813 16.60305494 16.33053599 16.13881392]","Upper/Lower",3.8695175324101,TRUE,16.78363392075,16.2547233610851,-11.2289523583646,-34.6371685434132,392.369307891236,22.9905603284524,-16.0756425647849,0.673281127983009,0.67327028631844,0.0714962358992104,FALSE,293.575240461634,7.04580577107921,-9.45222941920458
"40","P4",9,940,698,NA,"Static","1",39,"nan","nan",-50,-130,-28.302557028596,-102.993660092119,-25.7870178962118,-110.471008857506,-123.616279520275,-21.3646693077586,-23.7007455167383,-116.672377780807,4,219,"[16.60305494 16.33053599 16.13881392 15.46625886 16.82867995 19.14330921
 15.09436197 15.67424089 15.65649011 15.28896694 15.9587469  15.75280307
 18.30395008 15.64092794 15.79971402 16.16761601 16.37247205 15.26987203
 16.93014777 14.84500803 16.88768412 16.87872503 18.13857793 15.87367803
 18.2290629  18.04674999 14.36592103 16.70731395 15.077502   24.2932071
 19.76637403 20.21352504 18.39263784 17.54061109 21.89709991 26.88881918
 18.04775302 16.63987292 19.42593488 19.40571517]","Upper/Lower",4.78913790872321,TRUE,17.399568396,-6.93788772083741,20.622619428156,108.594033960253,416.837374426693,-21.697442971404,-27.0063399078808,0.831426450017786,-0.448276620868193,-0.0448093037767167,FALSE,106.811650832332,2.56347961997596,-7.96254590204877
"41","P4",9,941,203,NA,"Dynamic","2",40,"nan","nan",438,291,479.31286581071,337.550731184042,473.070347122452,332.134037541516,321.222283268093,460.494994985357,465.960868352841,325.965074279066,11,228,"[17.54061109 21.89709991 26.88881918 18.04775302 16.63987292 19.42593488
 19.40571517 19.22513801 17.53345295 16.99833386 17.88201509 22.54768694
 17.89142401 19.07871501 18.50218698 17.4221301  18.96194299 18.80486589
 17.73088216 19.48655001 19.13008397 19.74312798 18.86347891 18.71475414
 18.35328992 18.20449904 25.42902506 22.28151495 23.63607497 21.30658505
 16.90746192 20.21209896 19.17557907 21.35302592 19.58258101 19.69261304
 18.39748514 23.02609081 20.84627002 19.09080497]","Left/Right",4.87409088248387,TRUE,19.6464393755,18.8178708253536,16.3284479159491,40.9484913479537,422.713800154974,-41.3128658107101,-46.5507311840417,1.49374184859074,-1.48108801185736,-0.145990030302848,FALSE,586.243396086094,14.0698415060663,9.55095976952332
"42","P4",9,942,857,NA,"Dynamic","1",41,"nan","nan",130,182,179.494140375825,177.920586074941,181.271807217616,183.720136138598,196.629347937195,185.228713790735,183.230187598125,190.109255175664,2,228,"[23.02609081 20.84627002 19.09080497 16.94963407 19.36572092 16.90029912
 16.92153607 16.75535995 16.18732302 18.25003582 19.1656372  18.67085695
 16.35132194 17.68469508 17.74615981 16.62339806 18.4812001  17.1422069
 17.85906008 16.76218607 17.9789688  17.15841307 18.59997096 17.83230016
 16.40953985 17.36000413 16.7085249  17.27032312 17.77962898 16.47403999
 17.36601093 17.43110199 16.48920611 18.42808397 16.94296487 16.84424304
 16.94734208 16.83441689 15.22827102 17.20967912]","Upper/Lower",3.75659158825874,TRUE,17.6018207735,-5.73457341490959,-18.7087618622546,-107.041248092428,370.566020315612,-49.4941403758253,4.07941392505921,1.19188734892186,0.254506891359071,0.028616908257255,FALSE,252.732826080244,6.06558782592586,-8.45964198439102
"43","P4",9,943,54,NA,"Static","1",42,"nan","nan",-440,-330,-431.610338375237,-364.430822975912,-431.8403867828,-357.700685619173,-343.546749551127,-432.32419421207,-432.088241183967,-350.44962840907,1,229,"[15.22827102 17.20967912 16.0525199  18.17940315 17.21618697 17.35106204
 16.14146889 17.7707551  16.71507885 16.84231218 16.37576288 17.86380005
 16.58040797 18.62876792 16.40100311 18.05388206 17.02056988 16.91477513
 16.41344395 19.53634899 16.43461385 16.75279206 17.60934317 17.55644288
 16.82290109 17.15079881 16.77431003 16.93257014 18.53143494 16.82495489
 16.04190213 19.32452386 16.18493302 16.49840805 16.25894709 16.82265289
 17.05633802 18.21041293 16.771405   21.21920115]","Left/Right",3.75423459359445,TRUE,17.206859629,0.713855836832408,-20.884073424785,-88.0422876589,404.805036342422,-8.38966162476282,34.4308229759121,0.85051746834179,-0.832735985727106,-0.0857136883773333,FALSE,564.886987748246,13.5572877059579,5.93914459540912
"44","P4",9,944,484,NA,"Static","2",43,"nan","nan",444,-58,461.036023009062,-34.3758026296921,461.192658548081,-42.0997053773353,-55.1956515774772,461.458235505617,461.317111662714,-48.2366507990701,1,229,"[16.771405   21.21920115 18.87663314 16.03396097 19.74681602 15.35085402
 16.54781587 16.4883621  18.47671601 17.04191789 18.21540412 16.71476499
 16.87332685 16.35699021 18.95772689 16.29230194 18.82622018 16.51560795
 18.08730001 16.63047005 19.8195288  15.89869009 18.75466411 17.40990998
 16.94482286 15.82086203 18.87154393 16.04521414 18.32502685 18.37249799
 16.18833304 16.14649501 19.0619221  16.59536408 16.74380479 16.08007913
 16.97448804 15.85961599 18.98462698 16.88962593]","Left/Right",3.64463701657951,TRUE,17.39527278075,-0.422212496555119,20.8198489477852,91.1617605295034,399.038096202824,-17.0360230090621,-23.6241973703079,0.699026021018801,-0.558574394144727,-0.0583250905385582,FALSE,462.31581231713,11.0955794956111,-0.907770409902594
"45","P4",9,945,927,NA,"Dynamic","2",44,"nan","nan",117,207,169.797976437827,254.241193458876,175.756333275942,250.74020111682,243.448701247254,188.165774332424,182.253577415658,246.922571089678,0,229,"[18.98462698 16.88962593 17.01640501 18.68997212 16.29483188 18.0769912
 17.34137186 15.89063997 17.16421312 17.55613089 17.1489541  18.44265102
 19.0770959  14.85295314 17.20308186 16.75752294 17.21707406 18.14459707
 19.13980092 15.96038812 18.81897892 17.22931699 15.77534503 19.17067403
 18.94886605 16.03458892 17.4570391  16.24847786 16.63933997 18.24124507
 18.44578492 16.16263203 17.01940014 16.80867188 17.12560793 18.15476711
 17.36791804 18.74340186 16.82634302 16.20475808]","Upper/Lower",3.76394428731874,FALSE,17.381802126,-18.367797894597,10.7924922116225,149.562492426485,408.546950919894,-52.7979764378273,-47.2411934588764,1.70033803845019,0.518140055428784,0.0528437892574859,FALSE,305.728535229826,7.33748484551582,-0.552604556880742
"46","P4",9,946,130,NA,"Static","1",45,"nan","nan",310,-290,298.416867016829,-331.609002350127,304.900150193455,-332.79609798701,-335.253328394727,318.320232003608,311.396791192855,-333.985639454609,0,229,"[16.20475808 17.10548112 16.21798403 16.78483398 15.06843697 18.66222499
 16.54022187 16.72361512 16.18828694 16.52069995 15.23190318 18.05083198
 15.933024   16.69498906 15.04688687 16.93912013 16.63726778 16.82481612
 19.01590102 17.37496397 16.68658899 18.89216597 15.965014   16.70011599
 19.01579113 16.72293781 16.97623823 17.68630883 16.93349495 17.14121317
 17.89076184 17.73770503 16.84927102 16.72704914 15.65646287 16.37860993
 17.38276007 16.75341697 16.24489413 19.33027897]","Left/Right",5.31709070969373,FALSE,16.935933155,-19.9033649867783,3.64432604459904,169.624021528289,398.250949424385,11.5831329831706,41.6090023501275,1.03658832458047,-0.0935916503220595,-0.00979194676720512,FALSE,446.11339024937,10.7067213659849,-7.60191089184345
"47","P4",9,947,107,NA,"Dynamic","2",46,"nan","nan",-261,-203,-280.927599088051,-223.077097543247,-287.088540169059,-223.717005464156,-225.207010037785,-301.434089096662,-294.851374613966,-224.523294500958,1,230,"[16.24489413 19.33027897 18.56463682 16.81297016 19.47734994 17.44599198
 16.62709704 16.43711887 17.03758212 16.8586201  21.11566579 16.66160813
 16.80560596 17.74014602 18.038498   14.8410711  18.46723096 17.22351997
 17.01376797 16.18902595 19.35561793 16.60922705 19.43301316 16.54230687
 16.90589008 16.14348893 18.19011709 18.17307784 18.88099103 15.239876
 16.84386306 16.27990208 17.37977285 16.98766113 18.27855688 16.65979903
 16.52985113 19.53541301 15.57907485 17.09324098]","Left/Right",4.23366103484295,TRUE,17.389335524,20.5064900086113,2.12991249453813,5.92978016473348,395.200173991411,19.927599088051,20.0770975432472,0.67890695494809,0.525483051139326,0.0554026252308307,FALSE,358.725113948962,8.6094027347751,-8.09454341556361
"48","P4",9,948,884,NA,"Static","2",47,"nan","nan",108,95,109.279108395294,72.1498343417708,103.001042064913,75.8524508054996,82.7272246138992,91.3443429716368,97.1694629406162,79.2917424183757,1,231,"[19.53541301 15.57907485 17.09324098 16.27807389 18.72138702 17.1662441
 18.1500949  15.85619012 16.98507578 16.70464501 19.3731701  18.11467297
 17.35938992 17.01542316 16.82793396 16.56424999 20.29237594 16.34158916
 18.99635885 14.86505009 17.88106887 16.11121115 19.63960892 16.61191299
 17.10765995 17.72743999 16.82289899 15.98606422 18.13763101 17.26473193
 17.21304399 17.42764306 17.77908788 16.863144   19.20995908 16.55429089
 16.83144202 17.08947192 17.72154402 16.78014011]","Upper/Lower",3.46081014745869,TRUE,17.36449121975,17.9347654236569,-10.5773902721284,-30.5308372993022,399.695965174571,-1.27910839529368,22.8501656582292,0.549262528126366,-0.305032753038776,-0.03179841467184,FALSE,130.948547633089,3.14276514319413,4.21363221752024
"49","P4",9,949,862,NA,"Static","1",48,"nan","nan",-400,199,-455.29803895347,291.824758833649,-450.196773554432,287.372706020121,278.2651297514,-439.761101374724,-444.846998817186,282.70377041148,0,231,"[17.72154402 16.78014011 17.12453691 18.46430311 16.20205492 17.36203302
 15.77605004 16.86353399 16.77274588 18.57113722 16.54377487 17.68364012
 16.70082984 16.29777299 16.37686207 18.55961303 17.11869193 17.40037813
 16.85566991 17.73825195 16.57200814 19.22543999 17.40331482 17.2917801
 17.35217404 18.39696895 14.74398607 18.30404904 16.836792   17.11784699
 16.77044295 18.34425703 16.64169296 17.828624   17.09971088 17.02573709
 16.48910507 18.12720299 16.51614998 19.7524929 ]","Upper/Lower",4.65722102927975,FALSE,17.26883350125,-15.5369375787454,13.5596290822489,138.88765852466,398.054919103059,55.2980389534696,-92.8247588336492,2.59314518753265,-2.46476426480851,-0.258000858939514,FALSE,540.793855496891,12.9790525319254,9.49567937369786
"50","P4",9,950,559,NA,"Dynamic","2",49,"nan","nan",178,178,173.351066338449,190.127572827717,170.250008909443,196.515462323989,210.063011257874,163.673231510468,166.646179117109,203.939016064556,7,238,"[17.09971088 17.02573709 16.48910507 18.12720299 16.51614998 19.7524929
 25.42374702 22.17462589 18.89688219 22.33075793 17.77582988 21.99006407
 19.41360603 18.11603992 18.726432   17.79868198 17.44131604 17.27948501
 18.17967999 19.53836717 17.97486981 19.04298109 15.08035092 17.94097503
 18.56219    18.9855441  16.44055895 16.81901305 17.03228988 17.38934801
 19.46460712 18.80374504 18.63398892 23.03841407 19.55906488 21.9635251
 17.36955484 20.31729207 17.88634411 18.36759294]","Upper/Lower",5.6407027754467,TRUE,18.769204099,9.67783482798069,-19.9354384301573,-64.1053353343158,393.559120502402,4.6489336615515,-12.1275728277166,0.31171427552087,0.310565251674187,0.0328799871369741,FALSE,257.291830709869,6.17500393703686,-3.5570355096186
"51","P4",9,951,541,NA,"Dynamic","1",50,"nan","nan",71,117,156.830371661089,80.4349248344033,161.803058820575,85.4455950565872,95.2408840716035,171.524095278489,166.954902894476,90.6367906541586,2,239,"[20.31729207 17.88634411 18.36759294 16.73123403 17.78016309 16.47997485
 16.97583403 21.57451492 15.08791512 17.84208301 17.64464797 17.19953888
 16.83766604 19.19119898 16.71365905 17.10909395 17.25087618 16.58446598
 16.67230297 17.91929593 18.02688511 16.3313949  17.34823198 17.52521214
 16.93989593 18.29796098 17.91806193 16.46100311 17.1506789  19.45335697
 15.48836916 19.04082787 16.77572401 16.43783692 17.13359402 17.71129598
 16.35057409 18.34343304 17.31631998 16.92019892]","Upper/Lower",6.01494636107236,TRUE,17.478413751,-14.6937236174008,-14.8059592372001,-134.782011341304,397.815977637542,-85.8303716610886,36.5650751655967,2.23906718851746,0.828151123082029,0.0867393436533209,FALSE,176.254198839265,4.23010077214237,-9.12673606360027
"52","P4",9,952,467,NA,"Dynamic","2",51,"nan","nan",-346,302,-306.187693425652,325.045189977536,-301.603785167043,319.690380304564,307.813743358001,-291.436959918586,-296.515203514,313.746023498067,2,241,"[18.34343304 17.31631998 16.92019892 17.44639198 16.87722397 17.74175605
 16.612062   18.31245399 18.57889397 18.27124692 15.81478491 19.13936506
 16.77263505 17.36524911 16.01871895 16.40322502 15.80846286 17.82986498
 17.07025198 16.86494099 16.52229205 16.92308509 16.12110506 17.1053689
 15.97187412 17.17160991 17.3674     17.3500299  17.13983202 21.35492815
 20.09732695 17.76557206 18.5357118  18.79375707 19.85036093 19.28262715
 19.42325896 18.94016401 18.52887589 17.88435504]","Left/Right",4.73818634846248,TRUE,17.69092536975,-14.7507335070658,17.2314466195349,130.564706046134,427.389445599051,-39.8123065743483,-23.0451899775363,1.10402622643735,0.201201858800668,0.0196153902949347,FALSE,446.548182319505,10.7171563756681,9.5891513803153
"53","P4",9,953,242,NA,"Static","1",52,"nan","nan",429,47,539.29002313075,54.7629082835846,534.414884611118,49.9672770313541,40.4619452892759,524.751962989251,529.536210365498,45.1681677162988,4,245,"[18.52887589 17.88435504 16.34022803 17.00128708 16.37572399 16.16779785
 16.59259107 26.07746213 12.91593793 16.01082692 16.57356718 16.82988787
 16.63230499 15.35817492 16.87026815 16.67893887 15.80477902 16.08180394
 16.74851612 15.86887403 17.47931005 15.8114708  16.1880611  15.35617909
 17.14919484 15.68999514 26.40854404 12.98295287 17.28954702 16.12097002
 15.94902109 19.43723881 25.94278706 12.90097809 17.327026   15.99090197
 16.78504888 16.85105916 16.96409401 21.6010469 ]","Left/Right",5.0131582103204,TRUE,17.189190699,14.5380601414981,14.3009629943086,44.5289590861645,395.46089048591,-110.29002313075,-7.76290828358456,2.65350928424748,-2.0176612592417,-0.212585419083474,FALSE,542.063377449575,13.0095210587898,7.48891888538051
"54","P4",9,954,117,NA,"Dynamic","1",53,"nan","nan",-145,-214,-82.514209226471,-207.942189367778,-86.515576395871,-200.898810225515,-187.726350074874,-93.998894917053,-90.169219362368,-194.467510228779,2,246,"[15.99090197 16.78504888 16.85105916 16.96409401 21.6010469  19.56333406
 17.54092705 18.15371681 19.32889107 17.09409012 17.95584592 18.09735899
 16.81734505 17.46425405 19.06960201 17.41056889 17.84084807 16.81460883
 17.88762212 18.83494505 20.52741102 17.5143599  18.87164894 18.24278198
 19.02244217 19.67901201 19.19268887 17.6702321  17.50539383 17.86432718
 18.33451283 19.633146   19.87085817 16.00324502 17.87601784 18.26664503
 18.70466094 19.08062608 19.9001201  18.19668594]","Left/Right",5.06539693148807,TRUE,18.250573124,11.484685690582,-20.2158392929036,-60.3989487793297,424.650351050251,-62.485790773529,-6.05781063222199,1.50668993628798,-0.614355941329262,-0.0602805676687723,FALSE,223.715329924739,5.36916791819373,6.00953389005586
"55","P4",9,955,326,NA,"Static","1",54,"nan","nan",-494,69,-489.845799756686,83.930879436798,-485.324596417657,88.8521435438464,99.4863004406709,-475.554914355516,-480.392969741906,94.2201474863425,2,248,"[19.08062608 19.9001201  18.19668594 16.93138201 20.55140794 19.86362389
 17.04490511 16.82489505 25.55758785 12.18522293 16.77007717 17.77043799
 16.82048105 17.87258289 16.70941501 19.19712708 17.77291298 17.17686583
 16.85326407 16.09527203 15.96855512 19.34712986 17.8754481  18.04628782
 16.38016314 17.75877294 16.39127405 19.7418069  16.21135301 17.469479
 17.80827902 15.81680612 16.58803481 19.09713121 16.54016902 17.5414558
 17.58070407 17.98587106 17.20710495 18.19170197]","Left/Right",5.03187136887573,TRUE,17.71806052425,-14.2908854011699,-15.5554210038729,-132.573929373175,397.399763576822,-4.15420024331371,-14.930879436798,0.371952415344518,0.331335862275164,0.0347399827414921,FALSE,496.98420504308,11.9276209210339,5.20760783496653
"56","P4",9,956,538,NA,"Static","1",55,"nan","nan",-593,-217,-599.94314410294,-200.193079806079,-593.688836788149,-199.786723729389,-198.915397399757,-580.278079697051,-586.74821847393,-199.335776520367,2,250,"[17.98587106 17.20710495 18.19170197 16.46653819 19.42951302 16.89269487
 16.41705795 17.13631116 16.74229489 17.13261101 26.38042695 17.0561471
 17.95381098 14.87815706 18.40319787 16.54245309 20.630521   18.09519087
 16.01150515 16.84931805 18.01705081 17.61258417 18.53594091 17.89028407
 16.65769983 19.4474021  17.03866897 15.72367107 18.11110787 16.61963505
 17.54764398 17.30715018 16.3092718  17.62322499 17.853864   18.046438
 16.42041118 16.75393502 15.94366995 17.8382569 ]","Upper/Lower",4.31279168324545,TRUE,17.592508451,-19.665064405889,-1.2776824063219,-176.28259241581,373.388624752147,6.94314410294021,-16.8069201939206,0.436430491910075,-0.140132413391024,-0.0156374623405711,FALSE,632.46268297692,15.1791043914461,9.28424802765217
"57","P4",9,957,608,NA,"Static","2",56,"nan","nan",292,76,322.328556600356,71.4909737876043,328.112949820758,75.6806043804597,83.7209391618933,339.213799160268,333.609398539036,79.6616770400664,0,250,"[16.75393502 15.94366995 17.8382569  18.05544295 16.53528214 17.37871184
 17.3553722  16.94059884 16.89681201 19.88991001 16.77694404 17.76387589
 16.70491206 18.21269398 16.60063304 18.32010807 16.5534569  16.19550213
 17.18041883 16.06830908 16.56593895 18.90083216 16.45162981 17.9012001
 16.503372   16.10059198 17.65145105 18.33593403 16.25368884 17.96248509
 16.09787904 17.39929197 17.27374597 19.37708701 18.08572095 15.63423499
 17.28108898 17.08700508 17.75903092 18.38504919]","Upper/Lower",5.12407077942044,FALSE,17.27430259975,-16.8852425599121,-12.2299653742889,-144.084220994264,402.313665479073,-30.3285566003559,4.50902621239567,0.735885815734177,0.526020506709418,0.0544786891262895,FALSE,330.161563076577,7.92387751383785,-8.8097601634792
"58","P4",9,958,731,NA,"Dynamic","2",57,"nan","nan",283,-319,395.644162283407,-372.755169356224,390.17585150968,-368.708364642889,-360.540822978555,379.13932782205,384.587669022723,-364.57284927755,0,250,"[17.08700508 17.75903092 18.38504919 16.85962197 18.19349895 17.73069589
 18.21268699 18.03234196 17.06035808 17.50194794 18.47033901 17.31360913
 17.68410904 16.64885995 16.75310987 17.398183   19.16191308 16.82584011
 16.81717392 18.46932108 16.48248895 16.97004493 19.03557591 17.23562414
 17.03136996 16.42284798 17.33630197 17.11500599 17.96423597 17.82352501
 16.60029404 17.53710606 17.44174887 16.28932101 18.72803899 17.49526104
 17.27582002 17.14026509 17.363708   17.83825108]","Upper/Lower",5.33896701945923,FALSE,17.48728825425,16.5048344613567,-12.214346377669,-36.503165764734,391.387078786148,-112.644162283407,53.755169356224,2.99551589959576,-2.94055842096136,-0.313048831147036,FALSE,543.5813825277,13.0459531806648,9.53265486696208
"59","P4",9,959,840,NA,"Static","2",58,"nan","nan",-449,-290,-542.145602464228,-322.556939044121,-537.107231564044,-318.379381058967,-309.998005210233,-526.998818867,-532.460059908811,-314.526185365099,0,250,"[17.363708   17.83825108 17.11200201 19.19646212 17.53300102 17.7670808
 16.6712401  17.84770098 17.10755005 19.44002206 16.60484588 18.12603907
 18.69449788 14.68109502 17.47822715 18.78627599 16.34635986 17.46839914
 16.58868091 16.70850092 16.47096919 17.88184    17.10842899 17.2594469
 16.66947408 16.60159789 16.42144308 18.34762096 17.01091789 17.02751499
 16.30212623 16.65218384 16.10467397 18.57802016 16.94303984 16.15203312
 17.76915486 15.00247419 16.58640802 18.47661985]","Upper/Lower",3.9392147033941,FALSE,17.21814820225,-15.1467835972273,-12.5589338338875,-140.336223905906,380.919307093017,93.1456024642275,32.5569390441207,2.36811510321766,-2.21962250763463,-0.242792290727493,FALSE,630.844539642544,15.140268951421,9.4840861066915
"60","P4",9,960,756,NA,"Static","2",59,"nan","nan",-288,-233,-307.71011850178,-195.039498192755,-313.315193847968,-199.32818520989,-209.508458209391,-326.620244316563,-321.558021023652,-205.635130917029,1,251,"[16.58640802 18.47661985 16.92620199 18.47903291 16.72957698 17.99357007
 16.74897503 18.17371696 16.44903794 15.75532998 17.16841199 15.99146519
 16.33827295 17.63454592 16.408697   16.812969   16.49478613 17.39887381
 16.80734102 17.19486318 16.09488879 17.95518701 16.22012514 15.76738292
 16.812457   17.732593   16.70248597 16.34431398 15.997421   16.76083216
 18.38721684 17.97571802 16.70011505 16.69666194 16.72685007 16.63192105
 16.0101559  26.21065313 17.17985095 18.13837397]","Upper/Lower",4.99979036930017,TRUE,17.19034749525,18.9101258147833,14.4689600166359,37.4211751855908,461.704430274826,19.7101185017795,-37.9605018072447,1.02654048046617,-0.177932503424812,-0.0160575767162428,FALSE,364.315691239975,8.74357658975941,-9.5626918048424
"61","P4",9,961,889,NA,"Dynamic","1",60,"nan","nan",-410,-309,-456.840960823154,-360.86164284854,-452.353907128613,-354.910883976959,-343.797807233234,-443.974308301515,-448.230038224214,-349.441783061597,2,252,"[26.21065313 17.17985095 18.13837397 17.44394004 19.41369101 15.32671088
 17.92555512 17.26938784 19.65700998 16.83946    18.23009714 17.34531089
 17.15561305 16.7023011  18.97708979 16.75368915 18.21621391 16.90189703
 17.53034908 16.95453981 18.56392622 17.59378286 16.81634109 16.9043839
 17.58972509 16.37415704 19.40242085 18.64773198 16.61942899 16.94467803
 16.93478902 17.33545004 20.43166291 16.62123203 17.16656215 16.68290189
 17.76856696 17.04952796 18.58345605 16.95592515]","Upper/Lower",5.33174535632133,TRUE,17.778959602,-12.8666525216388,-17.063835615306,-127.017407594249,400.6820667042,46.840960823154,51.8616428485403,1.67720434987411,-1.67064055905132,-0.173728821622541,FALSE,582.172473383249,13.972139361198,9.28674097448169
"62","P4",9,962,288,NA,"Static","2",61,"252.0","-126.0",252,-126,227.344475851984,-140.790316938283,225.355062281933,-134.484456793238,-121.721342811742,221.328472480249,223.165010266539,-127.542631359171,2,254,"[17.04952796 18.58345605 16.95592515 17.85285515 17.24658697 16.87253709
 17.34908577 16.88517909 17.52426499 18.75700499 17.22353301 16.11864893
 16.74309908 18.3585661  16.12621383 17.12767221 16.19091793 16.46876591
 18.91731494 20.43054719 16.86503598 17.90530304 16.13945793 17.58601097
 18.33742205 17.45900582 16.76178118 18.47103401 17.59309485 16.88083797
 21.59135719 16.75546588 17.19131204 19.09808908 17.66243088 18.65769294
 15.33925114 18.00567494 16.59710798 18.89731595]","Left/Right",4.24197534541599,TRUE,17.564409604,6.01600337173437,-19.0689741265408,-72.4902194458992,379.46908367008,24.6555241480164,14.7903169382827,0.690035830505493,-0.16048664619399,-0.0176218403005132,FALSE,267.408720957255,6.41780930297413,7.27579070208775
"63","P4",9,963,485,NA,"Dynamic","1",62,"nan","nan",-292,-207,-268.193394807576,-254.022202601161,-275.652073295907,-251.834348391089,-246.643052645945,-293.349873141351,-284.166940279324,-249.336682402802,20,273,"[17.59309485 16.88083797 21.59135719 16.75546588 17.19131204 19.09808908
 17.66243088 18.65769294 15.33925114 18.00567494 16.59710798 18.89731595
 28.75301195 35.3164149  27.61195018 22.44383795 16.47511497 27.98548806
 16.60171803 25.33208788 20.61283495 28.71451806 22.10987196 27.52962592
 17.2056891  19.64742993 25.83081811 15.99786687 26.75149706 17.62166899
 36.38804611 13.28596892 27.28100703 18.93972489 24.36686005 23.12983316
 23.4451259  22.5864551  18.47706293 28.73581904]","Left/Right",4.02517038187943,TRUE,21.836174471,25.1564783337748,-7.37914995521601,-16.3479960397962,400.198487116298,-23.8066051924235,47.0222026011608,1.26492568368006,-0.865907264448172,-0.0901539373923781,FALSE,369.398127272943,8.86555505455064,-4.82992391027347
"64","P4",9,964,431,NA,"Dynamic","2",63,"nan","nan",337,219,434.724210006043,297.281241298795,441.825579717227,299.840017015766,304.267369137152,454.112809132068,447.979386981563,302.057365673182,1,273,"[18.47706293 28.73581904 18.95728102 17.74525689 16.90995297 16.80488605
 17.06225798 17.65986998 18.23893609 16.61341498 16.40868699 17.39566401
 16.40832098 17.128465   17.58114807 18.31834507 15.67141386 17.53821108
 16.51419094 17.80580194 18.39814405 16.97667711 16.74441202 17.54045999
 17.38332096 18.00621906 17.959469   16.83509094 16.71716408 17.49545988
 15.05731395 16.88770019 17.63567096 15.59120882 17.03143609 18.53355602
 16.4001761  16.51531993 18.50609295 17.34020491]","Left/Right",4.58969571953639,TRUE,17.538252072,-19.3885991260255,-6.98612783835694,-160.184821486473,391.692914203207,-97.724210006043,-78.2812412987948,3.00508119712216,2.84338543167323,0.302467542021761,FALSE,526.650999423271,12.6396239861585,-9.29208874103769
"65","P4",9,965,602,NA,"Static","1",64,"nan","nan",-371,169,-420.083074741061,216.209089935279,-416.450180622152,210.252057844245,197.987834468975,-408.970847912152,-412.798969357767,204.26499024437,4,277,"[18.53355602 16.4001761  16.51531993 18.50609295 17.34020491 24.43017298
 21.44963597 17.45592407 21.88891009 17.25211181 17.21550408 17.45783607
 16.56418294 16.39667503 17.84357289 19.67597799 16.93808218 18.79847888
 15.94449114 19.8089839  23.48103002 16.46175492 16.24161517 17.47228298
 16.53082599 16.78970503 19.19522998 16.83418988 16.73002401 17.88157108
 16.18067594 17.54204696 17.38099707 16.49689185 17.563303   16.65794104
 18.21206906 17.48599997 17.48157106 16.68895385]","Upper/Lower",3.70377896749415,TRUE,17.89311421975,-11.1122268289087,18.2212554663037,121.376913646236,397.589557079259,49.0830747410607,-47.209089935279,1.634441655602,-1.58066725366038,-0.165651070045718,FALSE,472.457575084309,11.3389818020234,8.19504487984836
"66","P4",9,966,734,NA,"Static","1",65,"nan","nan",-87,233,-48.6264102418777,262.992226746657,-47.032653852792,256.873983911474,243.078353882269,-43.4389956583062,-45.1616588255493,249.691454637563,0,277,"[17.48157106 16.68895385 17.31587993 16.87082998 17.90347393 15.97071602
 17.81658805 18.68641307 16.60216087 17.12856116 15.78273694 16.87219506
 16.76657097 19.13111587 16.97409619 16.35457296 17.80301402 16.13688283
 18.46427913 17.57295895 17.42664911 18.62305193 18.19728292 16.76247804
 17.74081704 18.23885506 17.32513681 17.6015771  17.07281591 18.42334098
 17.33592199 18.36289815 17.51809986 16.54763008 17.63024507 16.75164094
 17.23058289 18.59953813 15.676104   15.73350397]","Upper/Lower",4.29111522459425,FALSE,17.3280435205,-5.1874145835714,19.9138728643877,104.600644586608,395.859764022768,-38.3735897581223,-29.9922267466567,1.16889265903289,-0.464410653589924,-0.0488820679902876,FALSE,267.449881477215,6.41879715545316,9.57512935597753
"67","P4",9,967,984,NA,"Static","2",66,"nan","nan",-68,231,-59.9702140430061,241.809504307895,-59.2571172479042,234.4417657086,220.818333249855,-57.9385544496058,-58.5516824950795,227.153191572002,0,277,"[18.59953813 15.676104   15.73350397 17.74147199 18.00097292 17.41635194
 16.87386213 17.16435305 16.83902205 16.53272286 18.43166607 17.18907105
 16.16547001 19.67736497 15.19824285 17.74182706 18.39033701 17.55547803
 16.37396007 17.55866199 16.91683498 18.27707305 18.97652983 16.83042711
 16.89570793 16.89678105 16.828669   17.25182706 18.59196485 17.87582808
 17.04461197 17.82223908 16.30768506 17.62659382 17.95444801 17.70125213
 16.28192188 17.96708512 18.70436501 17.446568  ]","Upper/Lower",5.19205704960041,FALSE,17.37645987925,-2.0316595934003,20.9911710580399,95.5282322689891,404.55613551926,-8.02978595699392,-10.8095043078952,0.323174812194552,-0.239656043214269,-0.0246830231716652,FALSE,249.135029544209,5.97924070906102,9.49700375157291
"68","P4",9,968,206,NA,"Static","1",67,"nan","nan",-466,-73,-524.349451138597,-141.402448609811,-520.832026366752,-136.034523820882,-124.008653240859,-512.951868438977,-516.660458212016,-129.668314005749,0,277,"[17.96708512 18.70436501 17.446568   17.46877306 16.10673894 17.13781804
 16.22766489 18.72497401 16.7340131  17.67071593 15.98789915 18.5967728
 16.0290252  18.83574482 16.88574511 17.14560296 18.72747391 16.75880002
 16.29210007 19.92580504 17.50775496 18.68874393 17.32620317 18.31587497
 17.86091598 19.85952794 17.18868897 17.36885495 16.61362615 17.47778803
 16.39323798 19.23074992 16.72672899 18.01443007 17.79316086 17.32694707
 16.81618905 18.95804191 16.358183   18.370362  ]","Left/Right",4.27487024781294,FALSE,17.589242377,-11.3975826996206,-17.3937953689523,-123.235508641228,394.093312097916,58.3494511385975,68.402448609811,2.15780600894061,-2.14065050151179,-0.226326527647756,FALSE,543.081024693552,13.0339445926453,7.17079920984151
"69","P4",9,969,115,NA,"Dynamic","2",68,"nan","nan",-439,-17,-449.741454715688,-4.4160862618984,-456.478118801859,-4.99987178577125,-6.23421896353975,-470.722018251739,-463.522946357096,-5.61036212525096,0,277,"[18.95804191 16.358183   18.370362   17.97665888 16.65513916 16.59840299
 17.54526189 17.23108813 17.33288984 19.38420814 17.31278887 16.9501421
 18.53860007 16.15591091 17.62569207 18.2319649  16.42227499 17.00828806
 16.28988492 16.99920301 16.72834717 19.06469581 17.0407861  17.32569095
 17.47947093 17.51180412 17.15641888 18.26457004 17.02795713 17.15575298
 17.67566986 16.82645618 17.68045197 18.44955701 17.06580003 17.47931191
 17.88311894 16.39304613 18.25185702 18.1976459 ]","Left/Right",5.09423516644165,FALSE,17.4650848725,20.9805635360509,1.81813270164135,4.95276197791099,401.92941468965,10.7414547156879,-12.5839137381016,0.39707761332168,0.230758173763743,0.0239219215001888,FALSE,449.76313533643,10.7943152480743,-9.57183246922475
"70","P4",9,970,659,NA,"Dynamic","2",69,"nan","nan",218,225,247.677412618754,311.743043266198,244.834950189805,304.368037193102,291.865058062182,240.016073015015,242.561647145296,298.469762658852,2,279,"[16.39304613 18.25185702 18.1976459  16.41760999 17.79404818 19.34303902
 17.69223181 16.8044772  19.99879093 16.82505198 17.46438793 16.81961818
 18.93647388 16.1347161  18.81795097 17.21912995 17.5161229  18.70585303
 17.64513715 18.74143793 19.23268987 17.50384108 18.45524902 16.37612493
 17.55808806 16.7061449  19.59944516 16.87583188 18.00293708 17.08663208
 18.05839082 16.04503719 20.45360394 16.65795594 16.28031209 16.86489
 17.62447087 15.8679781  19.4597689  17.37185614]","Upper/Lower",5.58707047626376,TRUE,17.69499685575,7.66133960373921,19.877985204016,68.9224235527218,401.305449401039,-29.6774126187538,-86.7430432661977,2.20030455162446,-2.19869714161655,-0.228285912980807,FALSE,398.155529594141,9.55573271025938,9.16124357781503
"71","P4",9,971,60,NA,"Static","2",70,"nan","nan",180,-91,174.169048461129,-53.4548030806362,179.334624173076,-57.7021144501508,-65.7979251039678,189.1807407498,184.19898236549,-61.7017545693042,1,280,"[15.8679781  19.4597689  17.37185614 17.35438593 19.47634318 17.07025594
 17.26121595 16.14810992 17.280787   16.61549113 20.59622505 16.21843781
 17.11737504 18.50577211 16.45670994 16.71966794 18.93258397 16.33549319
 17.2592178  16.51336206 17.63387001 16.61896007 18.97052908 16.71254798
 17.71918801 16.7027649  19.08160304 17.72817597 18.81366409 16.94582379
 17.17299619 16.64882083 18.29586108 16.19223808 18.41551391 16.20429009
 16.21474791 15.97347693 16.46329206 15.91920294]","Left/Right",4.02886622049846,TRUE,17.3247151015,-15.0116922886715,12.3431220233315,140.57179922238,373.928172230264,5.8309515388714,-37.5451969193638,0.911886879583198,-0.680383412449317,-0.075814851507357,FALSE,182.187467774939,4.37249922659854,-8.87779511547346
"72","P4",9,972,73,NA,"Dynamic","1",71,"nan","nan",-197,-152,-159.314937580325,-286.631743433869,-157.556150251805,-280.281576130205,-266.981553527765,-153.872481758738,-155.716803642241,-273.640546535126,0,280,"[15.97347693 16.46329206 15.91920294 16.90008794 17.74598705 17.05043507
 19.52497801 17.84670493 16.95039705 18.32436887 18.3304071  16.7449601
 17.07119192 16.6215871  16.76991978 17.55185402 18.47575    17.87054399
 18.61565514 15.98041807 16.62627188 16.4829311  18.46608194 17.98181795
 16.15652093 16.85459516 16.76287991 17.90237892 17.86567108 18.43274594
 16.65997016 18.24197383 17.9234962  17.92270294 18.68704008 17.54884096
 17.159204   17.38930796 16.73864899 17.26980298]","Left/Right",5.25132644618861,FALSE,17.3951025245,-5.44245582158675,-19.6501899061035,-105.480980034918,390.722150199878,-37.685062419675,134.631743433869,3.35535710101024,-2.87252028005278,-0.306325978552716,FALSE,327.931403924909,7.87035369419782,9.33141267395608
"73","P4",9,973,26,NA,"Static","1",72,"nan","nan",333,90,342.280023206895,77.4745241151988,338.690428468328,72.0027007673071,60.5871764765616,331.201680508684,334.983254174822,66.3516442187896,0,280,"[16.73864899 17.26980298 16.09378005 15.82027692 16.20310009 16.0211029
 15.95570194 17.19760406 16.44657808 16.97871787 16.44691313 19.43228999
 18.19511689 18.20416306 17.02331193 16.91320702 17.27875811 18.54704088
 16.25503902 17.70145702 16.55977895 17.40728715 16.89311489 18.84320704
 16.42672205 16.82789484 17.38971006 17.15478906 16.31528605 18.7381939
 16.25020709 17.07383385 18.26702803 16.66320511 16.07078989 18.75393209
 17.02537294 17.00182096 16.522791   17.25581102]","Left/Right",4.32912204018794,FALSE,17.1040846725,11.0783426982114,16.8873476386372,56.7345496919006,393.606487493965,-9.28002320689546,12.5254758848012,0.374127883312755,0.129186319560192,0.0136754943986805,FALSE,350.938621661095,8.42252691986629,6.90791334866763
"74","P4",9,974,866,NA,"Static","1",73,"nan","nan",-146,-338,-128.170543321353,-345.129510246082,-131.92069159898,-338.436294884249,-326.62362460588,-138.539224352493,-135.419972886399,-332.190823629671,0,280,"[17.00182096 16.522791   17.25581102 18.42124085 16.50800998 17.94301299
 15.99209709 18.26968906 18.86253385 16.88352809 16.08467405 17.19574304
 16.33597002 16.84390497 19.89091188 16.97310805 16.88247197 17.9452491
 17.54623093 17.99800992 18.1908051  18.82830891 16.45456604 18.40320998
 17.22706016 18.05634494 18.09763885 16.53828006 17.89808506 17.09721098
 17.91339996 17.84340595 18.56180909 16.9036109  17.50168204 17.67177298
 16.13089    17.77589717 19.14577489 17.183783  ]","Upper/Lower",4.73308607446961,FALSE,17.519508622,10.3686810311405,-18.5058856402022,-60.7384829130026,403.600923077264,-17.8294566786473,7.12951024608174,0.460849648453303,-0.358433925221374,-0.037003748084503,FALSE,368.160382195031,8.83584917268074,6.21748736657252
"75","P4",9,975,292,NA,"Static","2",74,"nan","nan",367,-278,409.336252973844,-256.09038000602,414.660069795767,-252.536624033834,-245.150676407727,425.724822841689,419.994757225756,-248.975611709743,2,282,"[19.14577489 17.183783   18.07433087 15.60603408 17.08065788 15.64574707
 16.37391304 15.840295   16.44956507 17.31568296 17.04434888 15.68642398
 16.16069907 15.9207629  16.81568404 16.79588296 16.44297503 15.92337317
 16.29348192 15.89952805 16.00286504 26.9478939  17.65821292 16.72265097
 18.34242814 16.93665888 16.23847708 17.9437499  17.64952601 16.4886862
 17.02313987 16.21271507 17.12347288 25.74740001 15.62314807 16.80960204
 17.35304203 16.12907788 16.00403106 15.9610461 ]","Left/Right",4.3215580501128,TRUE,17.16541919775,-16.3885698678447,-10.9397035982936,-146.276084063575,382.637000712419,-42.3362529738441,-21.9096199939796,1.14407014826367,1.13702520219928,0.123814607587423,FALSE,482.844126743088,11.5882590418341,-3.94214001679491
"76","P4",9,976,212,NA,"Static","2",75,"nan","nan",-374,-266,-331.783285315062,-227.527935624015,-338.677461740477,-227.989129873605,-228.856239195415,-351.639472108138,-345.164748253276,-228.42310473159,1,283,"[15.9610461  16.18372602 15.99518792 16.45173295 16.68049511 15.79814288
 17.68406504 16.18629391 16.21138817 16.24797494 16.05154993 16.83207508
 15.31997696 22.84182492 15.66842198 16.82365313 15.79424692 16.36763616
 16.3958068  17.67543517 15.94969281 17.00903615 15.45470697 16.06995589
 16.7035351  17.87911006 15.90900496 16.64110087 15.92085813 16.23925497
 16.22302504 17.95838098 15.59405308 16.99038595 15.82852006 16.65872196
 16.32610988 16.26406703 17.56084012 15.86879697]","Left/Right",4.88585907616653,TRUE,16.55549592675,19.8561867930761,1.32830357140026,3.82716810330729,400.683988782847,-42.2167146849384,-38.4720643759848,1.37080779980868,-1.07257114244853,-0.111535438200175,FALSE,402.304747553122,9.65531394127494,-8.26192064998896
"77","P4",9,977,986,NA,"Static","1",76,"nan","nan",184,210,224.449022235881,182.035282111115,224.582951800191,189.232554534505,203.838494708595,224.854744652925,224.706286725193,195.860479138982,4,287,"[15.82852006 16.65872196 16.32610988 16.26406703 17.56084012 15.86879697
 17.66312588 17.8737801  17.13457098 19.51211505 24.01029994 36.29019996
 22.02463197 19.53695505 24.25520914 17.44271698 17.38119894 17.43279793
 19.28332215 17.40643289 16.92476892 17.40791206 17.82353711 17.95124682
 18.7289482  18.39401992 17.91580999 18.48623808 16.98566787 17.89149595
 18.75197212 18.13593507 16.98012999 17.66544487 17.59006595 17.15620398
 19.93338019 16.85406687 17.7414841  18.27764604]","Upper/Lower",4.81471841060556,TRUE,18.583759677,-0.405722417043762,-21.8032125974797,-91.0660584736616,391.147747061209,-40.4490222358808,27.9647178888849,1.18019224516668,-0.652975609135636,-0.0695576473384637,FALSE,288.988248058491,6.9357179534038,-6.18476691053914
"78","P4",9,978,162,NA,"Static","1",77,"nan","nan",-529,-178,-525.586863167892,-143.806374857382,-518.989166656973,-145.213651595891,-148.635925167381,-502.94461636762,-513.341757413061,-146.418233778269,2,289,"[17.7414841  18.27764604 15.95169702 16.26303303 16.45176602 25.74445307
 14.55297181 16.63083001 16.4428202  16.40620781 15.94938198 17.30844611
 17.39931409 16.95019798 16.08509989 16.37747209 16.33709599 16.46896196
 18.29352695 15.936221   16.05605893 17.10776309 16.33829204 15.87038091
 17.57592312 16.81432198 16.14360884 16.32770407 16.49636403 17.30392594
 17.44791702 17.58367196 16.15541312 16.06804808 16.11271687 17.12472201
 26.82785993 14.07210808 16.81415411 16.69707894]","Left/Right",3.54043961525895,TRUE,17.0626665055,-22.6422468002725,4.82955030999906,167.959350664169,452.285406716269,-3.41313683210774,-34.1936251426178,0.824725177240787,-0.0910784249536932,-0.00839057443976125,FALSE,544.905335066823,13.0777280416038,8.52742715688831
"79","P4",9,979,512,NA,"Static","2",78,"nan","nan",-510,329,-508.626406040025,366.379794933142,-501.139478342971,364.926013701824,362.082209530225,-486.493976145891,-493.983862893278,363.536565337926,0,289,"[16.81415411 16.69707894 15.56360489 16.96540997 16.97370317 19.21300986
 16.67739311 16.70647785 16.91015717 15.98832291 15.65506705 15.01797
 17.63014798 15.98785492 16.49085013 16.84201695 16.96251705 16.74979995
 18.84121308 17.57399179 17.13487809 17.00329804 16.50037989 17.21904916
 17.39397994 16.34919201 16.61948394 16.9293771  16.01519901 16.7428779
 17.80668506 16.7447729  16.88056509 18.26475398 18.72578496 17.98488502
 18.92637392 18.4647562  18.8439698  19.57733417]","Upper/Lower",5.58875517034903,FALSE,17.1597084265,-22.132429894134,4.29758540291681,169.011283541682,437.960301149225,-1.37359395997493,-37.3797949331418,0.897720578941863,-0.138642385970263,-0.0131901591695316,FALSE,626.845256069186,15.0442861456605,8.71623103642504
"80","P4",9,980,441,NA,"Dynamic","1",79,"nan","nan",307,-147,457.574296976695,-273.505419291574,450.057255911359,-272.033361335404,-269.458028545084,436.906359059365,443.486824728701,-270.746677464207,0,289,"[18.8439698  19.57733417 17.33511407 16.91206195 16.31705789 16.938532
 16.40700409 17.96933799 17.050653   16.94159    16.84269495 16.27900498
 16.41502208 18.1699649  16.35996508 17.08117709 16.93348098 16.96904702
 16.32102486 18.91033514 15.75313089 17.41937292 15.46708099 18.0811102
 16.57782798 18.71020487 16.54251199 16.42808202 16.28172607 16.78179507
 18.63231999 18.70320993 16.9909189  17.03068917 16.01939183 17.0037502
 16.70972398 16.94136299 18.96354882 16.22679108]","Left/Right",5.26132943551056,FALSE,17.14597304825,20.6679379173295,-4.0473907464899,-11.0799844935538,409.435473269043,-150.574296976695,126.505419291574,4.71990616978916,-4.12990260590276,-0.420284236419528,FALSE,533.084844687575,12.7940362725018,9.03313626025601
"81","P4",9,981,810,NA,"Static","1",80,"nan","nan",393,-371,437.529205849793,-386.146366372109,431.458264164137,-384.712594343984,-381.705685816915,418.726277513646,424.971984702133,-383.180732148503,1,290,"[16.22679108 16.59100479 16.32942911 25.49488191 14.2758782  15.87045798
 17.26385695 15.65460302 16.2334349  16.46617195 17.50763017 17.25917193
 16.73868997 16.33484801 16.06661291 15.90803219 18.16246798 16.17132989
 16.96477202 16.31739712 16.26319299 15.70159383 18.52413407 15.49623092
 16.63179416 15.63732885 16.70635212 15.71112289 15.94584598 18.24658411
 16.165687   16.04021806 15.97207785 15.625634   17.07383501 17.52080815
 16.21694001 16.56090491 15.65795694 16.24260307]","Upper/Lower",5.04747493378818,TRUE,16.644457675,18.8029283361467,-4.44068055519421,-13.2880420703443,386.919393745716,-44.5292058497925,15.1463663721093,1.12883269381491,-1.12364065342498,-0.121002878935925,FALSE,583.558756453824,14.0054101548918,8.46507443887804
"82","P4",9,982,779,NA,"Dynamic","2",81,"-317.0","130.0",-317,130,-319.61671367455,138.623780121121,-321.357829366436,145.653951749087,158.156988650669,-324.454373077969,-322.894677704265,151.859345010108,0,290,"[16.24260307 16.76983805 15.66395606 16.08315599 16.15052205 16.232986
 15.79683996 17.26341597 15.76419803 15.308487   16.72235387 18.4685511
 16.53332799 19.41746497 17.51306304 16.86556195 16.43289812 16.99132682
 16.35841606 17.96944207 16.73259889 16.98771515 16.7888389  16.65414101
 17.11040502 17.89500611 17.64334296 16.29905403 15.89497691 15.56038996
 15.85971308 17.84849702 16.91956003 15.41011897 15.647294   16.12246293
 16.30109898 15.88536403 18.26495701 15.93130501]","Upper/Lower",4.68430978106335,FALSE,16.65763120425,4.83765940341982,-19.5332085295485,-76.08983178623,402.685291334654,2.61671367454949,-8.62378012112052,0.216288838922484,0.215998475708596,0.0223498018962374,FALSE,348.383977925489,8.36121547021174,-5.82514319839686
"83","P4",9,983,472,NA,"Static","2",82,"nan","nan",-279,-76,-284.41639900035,-85.0717705808492,-285.661239665883,-91.2377434853151,-104.765429256983,-288.392327463386,-286.987437915409,-97.8066986126177,5,295,"[16.30109898 15.88536403 18.26495701 15.93130501 19.03212513 19.34487396
 19.67555494 19.99543118 22.58264995 17.350927   23.14462489 16.12841501
 17.86403009 20.42828407 17.14189793 17.957957   17.94987288 16.50708308
 19.56687309 17.94086699 16.333604   17.99674681 17.1049831  17.12268312
 21.37813484 17.03606616 17.36435387 17.313638   16.01799694 17.05399598
 17.876775   16.07518108 16.3290191  16.70075394 15.69123706 17.428461
 17.65767485 16.83877897 15.95832012 16.47237595]","Left/Right",5.41249493020587,TRUE,17.76862430275,3.97592846303513,19.6936586761337,78.5860493034125,376.900271358924,5.4163990003504,9.0717705808492,0.25357723511994,0.239141811134356,0.0264373440079303,FALSE,296.866795330982,7.12480308794357,-4.51674673786039
"84","P4",9,984,502,NA,"Static","1",83,"nan","nan",-142,154,-134.482037517975,165.949159057272,-139.357494838891,162.841668156776,153.506465884084,-154.003838696358,-148.023706554714,157.318048057966,1,296,"[15.95832012 16.47237595 15.61698806 16.74916479 16.30480401 16.72052918
 17.21420884 18.66231207 16.12727507 16.08954603 17.37254695 17.02843001
 15.33777197 18.30390887 15.98226    17.73772109 16.22216101 16.04359807
 16.64259494 18.51392188 17.3195051  18.01962708 17.03214482 16.28495613
 16.36901498 18.58220506 16.09801198 16.44543186 16.99043717 15.91755287
 16.13638806 17.11374498 16.077657   15.15657594 16.65135007 16.955839
 17.68625202 26.11300489 14.08066507 16.96972293]","Left/Right",4.89579450129531,TRUE,16.927513148,19.521801178383,12.4426931731876,32.5123869348318,455.8648520517,-7.51796248202476,-11.9491590572721,0.338818602418612,-0.306292053445476,-0.0279955097132914,FALSE,213.599021081095,5.12637650594627,-1.08812640186257
"85","P4",9,985,938,NA,"Static","1",84,"nan","nan",-440,266,-432.972649748317,317.750244682208,-426.780973498108,309.805090427709,296.208586937185,-416.185188312381,-422.261900628359,304.006219558729,2,298,"[14.08066507 16.96972293 16.91415114 16.66713087 17.08987006 16.60416811
 16.08394692 19.36705993 16.40899712 15.67229605 15.79498779 17.02557714
 16.29391499 17.12460001 15.93692508 16.00980898 16.80751098 16.87048702
 17.09174784 18.95230217 15.86625888 16.67827903 16.22944698 15.86315711
 16.038022   18.21743697 17.030983   15.85157891 17.05257292 14.89817817
 16.91804989 16.36282098 17.99685904 18.54123501 17.55454298 16.452173
 24.83673091 18.45026901 24.74162518 16.97098487]","Upper/Lower",4.51683691912331,TRUE,17.157926876,-16.7874614359353,21.5416577450227,127.929365113378,530.570547734508,-7.0273502516834,-51.7502446822082,1.25340479108206,-0.875984586557688,-0.0687926571293604,FALSE,537.057290636373,12.889374975273,9.23745647514219
"86","P4",9,986,321,NA,"Dynamic","1",85,"nan","nan",294,-383,275.378712196567,-397.386373350238,269.109197824179,-396.264005655378,-393.961733248305,256.24876891892,262.424392762831,-395.067292672259,0,298,"[16.97098487 16.16674988 19.53279413 16.98098588 15.73903603 16.29688405
 16.37273608 17.49295788 17.15511712 16.14383003 16.70754584 16.17577299
 16.73129504 17.32983603 17.395464   16.18128107 17.02367282 16.49686811
 16.23271708 16.7724269  18.02612795 15.98397619 16.76802593 16.426621
 16.62013005 16.53347793 16.35331893 18.06036499 16.08605194 16.66763821
 15.70017496 15.75579587 16.67135605 17.43060607 16.16805489 16.89778711
 15.74565494 16.95524296 15.81337    17.98350899]","Left/Right",4.01748967543244,FALSE,16.71365601975,19.1299432776472,-3.42464010193345,-10.1495699398222,387.588551591638,18.621287803433,14.3863733502381,0.564750189229978,0.379073786664906,0.0407513097230979,FALSE,483.476333294086,11.6034319990581,6.77287105287729
"87","P4",9,987,112,NA,"Static","2",86,"nan","nan",117,-46,110.933971881754,-8.31896779897091,111.39627027912,-14.8644863832211,-27.7992326682239,112.309828525257,111.825260098663,-20.9384006608291,0,298,"[17.98350899 18.59223307 16.66709082 15.703385   16.32237108 16.80494705
 16.96272194 17.46628014 17.12114899 16.31149394 16.85021305 16.02097484
 16.40276797 16.05165098 17.891336   16.6794972  17.22612581 16.25692518
 17.13471487 16.63838909 18.14528997 16.42007008 16.30449598 16.96810499
 16.24094392 16.07538504 18.16008589 16.25011    16.20422699 16.10474498
 16.0883572  16.37304085 17.65358495 16.15940221 15.93043795 15.94105386
 16.55774517 15.88345296 16.06352301 17.97083695]","Left/Right",6.23828867357224,FALSE,16.714566724,-1.37585664350229,19.4802648692529,94.0399908274413,389.456532342313,6.06602811824568,-37.6810322010291,0.915988190798883,-0.912354421404562,-0.0976097828681694,FALSE,111.245455379994,2.66989092911985,-1.39055938731368
"88","P4",9,988,495,NA,"Dynamic","2",87,"nan","nan",-412,-281,-515.878597154663,-330.796760469043,-510.159866778115,-326.998667364387,-319.61244327395,-499.038542758386,-504.217443001509,-323.052008353599,1,299,"[15.88345296 16.06352301 17.97083695 16.39056578 17.88628218 16.34800597
 17.62598893 18.61606608 17.44885603 16.15052391 17.97579206 16.50772803
 18.98086397 18.78612698 15.84469806 15.95543302 17.23459293 17.91898487
 17.33585913 18.77766289 17.43380516 17.41436287 17.54397713 16.97267382
 18.39478617 18.56584894 17.57887611 18.58815784 18.24824698 17.11643697
 28.23228016 13.11969082 17.06058206 16.16143715 16.63961983 16.15323103
 15.6911891  17.96289789 16.8706181  16.31602598]","Left/Right",9.21551337838173,TRUE,17.44416469625,-16.8400543962777,-11.1843171950936,-146.409886982292,386.294333457419,103.878597154663,49.7967604690432,2.76474169730528,-2.73798137346468,-0.295325474248175,FALSE,612.827238085153,14.7078537140437,9.5987600074663
"89","P4",9,989,40,NA,"Static","2",88,"nan","nan",-170,143,-73.6278410964864,161.386135568337,-78.8808307567264,165.497371645663,173.927562506527,-89.6522154675671,-83.99276450275,169.498210748894,4,303,"[17.96289789 16.8706181  16.31602598 17.00402703 16.98809513 16.01128583
 17.45765703 16.50538016 21.80528897 21.9353179  19.63529806 17.84003805
 16.82644803 16.46470884 17.49784104 17.44571002 15.82293096 16.531531
 16.17295202 16.2912379  16.21391415 17.9767129  16.19435009 16.60008193
 16.08009101 16.41518995 16.38707705 17.27709593 16.58140402 16.52381918
 16.79478097 17.62570185 16.1605631  26.24138002 18.21647305 15.25653992
 17.7829829  16.15878916 16.46417589 25.67831101]","Left/Right",4.36437403457239,TRUE,17.5503681005,16.0243743710807,-12.5414269381899,-38.048400040716,386.481162473236,-96.3721589035136,-18.3861355683371,2.35464867100978,-1.5494467086188,-0.167046381025762,FALSE,177.388116113259,4.25731478671822,-8.52085965923536
"90","P4",9,990,179,NA,"Dynamic","2",89,"nan","nan",-227,-104,-192.215621570505,-113.227152569707,-193.78125746048,-120.248683879151,-133.473156786134,-196.730003039856,-195.296896618848,-127.045990885486,1,303,"[16.15878916 16.46417589 25.67831101 16.78511291 16.47723606 17.30025397
 16.18309016 16.55317494 17.04397099 17.011547   17.008611   17.63912407
 15.84607782 16.61332999 16.56343904 15.91718593 16.41403511 17.92324707
 16.6077239  16.87556296 16.30301005 17.7853941  18.56903103 19.18281498
 18.30005087 16.50532498 16.45426196 17.41919713 16.80543995 18.85391492
 15.89802303 18.10097112 18.31443794 18.04047404 17.06664707 19.69430479
 16.55849    17.21856417 18.09012285 18.16042117]","Left/Right",4.39919553836808,TRUE,17.40962237825,4.51438146935143,20.2460042164274,77.4300202354788,397.159667994936,-34.7843784294951,9.22715256970696,0.863697722879991,0.0344591196347218,0.00361516228144558,FALSE,223.085708315838,5.35405699958012,-6.55584941982413
"91","P4",9,991,136,NA,"Static","2",90,"nan","nan",-243,0,-232.694940505054,-61.679866763549,-237.400444043378,-64.8274244052215,-74.2815595434816,-251.534090320698,-245.893765071371,-70.5086904561574,5,308,"[17.21856417 18.09012285 18.16042117 15.87276813 16.54783287 15.94977011
 15.92841884 17.76196016 16.36450086 15.843709   16.72660606 16.756417
 16.02324308 25.52762884 13.50438711 16.89528488 15.93279303 16.22722507
 16.29007002 16.66608802 17.16688694 17.1250049  16.7610331  16.5041571
 17.01411279 16.06058306 17.21190405 16.43620199 18.03931803 17.07027107
 15.95908892 17.35297707 20.00226779 20.69769613 22.22781489 15.97244921
 16.78329986 25.97722993 13.75938114 16.61401894]","Left/Right",4.72982519585639,TRUE,17.3255877045,18.8391498156448,12.6016927799325,33.7789540272207,436.066186577596,-10.3050594949464,61.679866763549,1.50083500889811,0.617471052372884,0.0590001272913617,FALSE,240.730848253022,5.77754035807253,-9.08062077953409
"92","P4",9,992,791,NA,"Dynamic","2",91,"nan","nan",-291,154,-223.679518934981,232.119061268389,-217.598887795103,236.053693440247,243.424958990179,-206.20723925326,-211.935668821011,239.718228101066,3,310,"[16.78329986 25.97722993 13.75938114 16.61401894 18.55791011 18.64857296
 16.80106297 21.27326303 18.95853109 17.11992989 19.07867799 15.79210511
 17.04441197 19.12212395 18.38273997 17.04406505 18.44731509 17.05953199
 17.15243887 18.99207104 18.50256906 17.22964784 17.93294307 15.216809
 18.85407511 17.64233201 21.01145382 17.35286904 16.33039908 16.57763403
 16.69542002 16.703228   18.53835187 17.67488802 16.5497181  17.00999495
 17.078656   16.97745989 18.00282602 18.10740517]","Upper/Lower",4.10917550930753,TRUE,17.81493402625,-17.4722796817217,-11.30589772179,-147.094052117318,389.395173681768,-67.3204810650187,-78.1190612683893,2.47498478881492,2.37501368958807,0.254134900536055,FALSE,322.353510598385,7.73648425436123,1.83724098381607
"93","P4",9,993,296,NA,"Static","2",92,"nan","nan",-373,-207,-420.459198945954,-262.957142706407,-422.761610746713,-256.344012897745,-242.655129669344,-427.527500302218,-425.229867015497,-249.254534333954,2,312,"[16.97745989 18.00282602 18.10740517 16.02009893 18.47895118 16.29807986
 16.95021009 21.57483902 16.42319094 16.69098902 17.7202851  17.30599999
 16.22272097 19.08401283 16.188954   18.05947605 16.86972915 17.30072591
 18.51815009 17.81641599 15.99170896 17.4222819  16.563877   15.78805107
 17.94674108 18.24988797 17.52440189 17.83363894 16.01426606 16.55998407
 18.11386505 17.72983093 20.30655998 17.47361803 16.85707597 17.57315989
 17.31452718 18.41375185 17.83089805 17.27497694]","Left/Right",4.07202331325971,TRUE,17.48484057525,7.06830135626404,-20.3020130370632,-70.8040463179352,409.826823159896,47.4591989459537,55.9571427064071,1.76094877081848,-0.893791690379865,-0.0908708711288144,FALSE,495.915715498703,11.9019771719689,2.13112963366752
"94","P4",9,994,550,NA,"Static","1",93,"nan","nan",72,199,48.6721098536748,227.653511679055,55.4115958009814,229.377061442775,232.797089973444,68.7847137155324,62.152522605692,231.100979690006,0,312,"[17.83089805 17.27497694 16.98459708 17.29521295 16.77107811 16.35903586
 17.20597199 17.45333802 16.82414603 16.7514591  17.46534999 16.54474786
 16.50406001 18.65841704 16.39353391 19.91980011 17.16802991 16.4605272
 18.59333296 18.67857389 16.97629504 19.4644311  16.81542397 15.64291283
 17.39657321 19.25136894 15.85929492 17.11810799 16.62401296 16.62881603
 17.65798102 17.46601705 16.82713605 18.14702689 16.66307705 16.21088712
 16.989914   17.21357484 17.493475   18.15490914]","Upper/Lower",32.4871769994497,FALSE,17.293458054,-20.1126038618576,-5.14357829438867,-165.654695844278,400.149288190681,23.3278901463252,-28.6535116790552,0.886771319770302,-0.372028512791568,-0.0387385120765111,FALSE,232.798401320572,5.58716163169372,-4.27050868032387
"95","P4",9,995,800,NA,"Static","2",94,"nan","nan",89,300,90.2939408353162,350.408384467625,89.3405460668375,343.438631482432,329.957946310729,87.4965187755527,88.4898192394666,337.219428230338,3,315,"[16.989914   17.21357484 17.493475   18.15490914 16.62670402 17.60983095
 16.61614492 28.14632817 20.66359296 16.96571801 16.54522191 16.93707192
 17.82134315 18.17607693 17.63960696 16.31358708 16.65924909 16.37171698
 19.10223486 19.16623604 17.64189312 23.46929186 17.40975212 19.58893891
 18.06848007 18.65486102 17.47642295 17.09385403 17.51366188 18.36555894
 17.09146006 17.31383405 17.16746506 16.96932991 17.08256709 18.95183884
 18.41418422 15.83240298 17.61488384 16.52787905]","Upper/Lower",4.11787949432619,TRUE,17.98652742325,2.79742205976358,20.4504381568958,82.2108342591674,382.524858006788,-1.29394083531623,-50.4083844676247,1.21019973406549,-1.20284775103242,-0.131020651975846,FALSE,361.854987055288,8.6845196893269,9.53520658539587
"96","P4",9,997,858,NA,"Static","1",96,"nan","nan",-436,172,-413.939759919928,177.359036921647,-405.932314776357,176.551251423133,175.007438395913,-390.628749473259,-398.542057944244,175.805727452349,4,324,"[18.32616283 18.54451606 15.89809894 19.80417012 17.1523001  19.58674588
 16.79470995 19.03881109 17.09839306 16.79547993 22.89815899 18.00940093
 19.71707516 17.57421391 17.801326   18.77065911 22.9647758  16.93212613
 20.61719401 17.07011601 17.20588794 20.237725   17.642488   16.45953697
 18.08268996 16.23582514 16.559768   15.62175388 17.08699809 16.85535698
 18.48985394 15.41326195 17.04015699 16.40164619 17.22033182 16.93035709
 19.59895599 19.074257   19.88573396 17.44918502]","Upper/Lower",4.97725132177584,TRUE,18.022155098,-23.3110104466697,2.35159852573386,174.239529585466,433.342995234603,-22.0602400800717,-5.35903692164695,0.54484412285713,0.513862901081757,0.0494087926819919,FALSE,450.335822270827,10.8080597344999,9.15905179007548
"97","P4",9,998,660,NA,"Static","2",97,"nan","nan",432,353,476.642792438291,386.048628017033,468.522307420813,385.283902151357,383.90538633321,453.884098423231,461.587615136248,384.630845277402,1,325,"[19.074257   19.88573396 17.44918502 17.27537415 18.31792784 16.52120613
 18.21544697 15.79449396 17.00095413 15.79329092 16.06233092 15.77843702
 17.69767608 16.27256488 16.8388451  16.07537107 15.98514104 16.9209498
 18.31088401 17.134208   17.14853197 16.478481   16.63870318 17.11441693
 19.49874498 16.10941393 17.600914   16.26486098 17.51949615 18.0445069
 18.13681796 17.40843803 17.43944711 17.27463701 17.06338488 19.14277207
 19.27773096 17.71838497 20.13885416 18.10863893]","Upper/Lower",4.74253812036477,TRUE,17.4132863525,22.7586940150597,2.14324168382302,5.37981709465396,437.585185259275,-44.6427924382909,-33.0486280170329,1.33306783802101,-1.14107289071925,-0.10865245301163,FALSE,613.369297224115,14.7208631333788,7.99369446947295
"98","P4",9,999,618,NA,"Static","1",98,"nan","nan",-357,215,-365.774553820676,213.031579110146,-372.40143065794,214.498518257422,217.234846158165,-385.872309801752,-378.864112506177,215.811277169901,1,325,"[20.13885416 18.10863893 18.14549183 17.198805   17.87023013 17.50322501
 18.86495994 18.06458691 16.47007116 18.23750604 16.7010359  17.9582939
 18.13163213 17.00121188 16.70023915 16.9662449  16.41824609 16.32842701
 17.553468   17.19949697 15.96477698 17.85805891 16.31851518 16.92259987
 18.1555571  17.08154497 16.388288   17.66853896 17.26600109 17.44946488
 19.35566496 18.26426503 17.26823207 17.45741605 17.75205485 17.07724319
 18.02835986 16.47305093 16.84047701 18.45350116]","Upper/Lower",4.46063026832417,TRUE,17.49010690225,20.0977559810754,-4.20326704801997,-11.8126388943561,391.318171040625,8.77455382067632,1.96842088985449,0.215823228401623,0.196458461500159,0.0209184490651304,FALSE,423.288882349722,10.1589331763933,-9.10897662458968
"99","P4",9,1000,153,NA,"Dynamic","1",99,"nan","nan",-163,215,-113.635086997399,240.273350597461,-119.776338729527,237.62980584695,231.971482082779,-132.921261133789,-126.70600961832,234.646880557469,2,327,"[16.47305093 16.84047701 18.45350116 18.72831699 16.78699418 19.28554103
 17.64730387 18.85138592 19.23777722 17.57018291 21.38611698 21.25307405
 18.52369797 19.50745005 17.57307188 18.17774307 16.92241104 17.01235888
 16.91239513 17.79199694 17.14868098 16.92606998 17.14572497 16.90659416
 15.98095498 18.00604793 16.16148488 17.2067252  16.53931197 17.00245589
 16.50337502 19.04444513 16.38527191 17.77525409 16.18161588 16.78727008
 16.65458502 18.85178383 17.07549905 17.70652202]","Left/Right",3.83607345120981,TRUE,17.6731130045,19.2861741363899,8.30186851468235,23.2897989917547,396.026889863998,-49.3649130026009,-25.2733505974609,1.33100219625577,-1.32804308910934,-0.139725685626782,FALSE,265.78979665186,6.37895511964463,-0.338648971183705
"100","P4",9,701,422,NA,"Static","1",0,"nan","nan",-485,-355,-456.368206720936,-366.933005157148,-449.375686111775,-361.276295805725,-350.99244845263,-436.663345757944,-443.377235088463,-356.423754655805,18,18,"[20.37436096 18.49230216 19.555768   23.11790385 17.8464062  20.68169694
 19.04139901 19.71314894 28.56415207 14.45261389 18.59584614 20.18404193
 17.85335504 20.56167787 20.10753215 20.08417691 17.64706289 20.83532
 17.99844019 23.64028781 16.99721906 21.66173002 18.62359792 19.59050819
 22.45096886 21.51347604 21.44820802 20.18158208 20.94760491 21.84460498
 22.32781705]","Left/Right",4.81158463400789,TRUE,20.2237035509677,-19.7048609629917,-15.9405567045176,-141.028328927253,417.748633947093,-28.6317932790645,11.9330051571475,0.744455163398321,0.35411739447144,0.0353200231845131,FALSE,585.586689038726,14.0540805369294,9.59995704431986
"101","P4",9,702,456,NA,"Static","2",1,"-324.0","-354.0",-324,-354,-293.282716480208,-392.791628673437,-298.61711270823,-386.115929921021,-372.91551643911,-309.165257329159,-303.410333088829,-380.117482496601,28,39,"[18.62359792 19.59050819 22.45096886 21.51347604 21.44820802 20.18158208
 20.94760491 21.84460498 22.32781705 19.07284907 28.33602484 15.95668611
 18.22795905 18.04193784 19.34811706 21.00184397 20.90994408 19.55894707
 20.27166379 20.9315042  24.66795989 18.81513698 20.81687609 21.118087
 19.93237785 21.07363311 21.8035751  21.03175595 20.85798304 20.20329679
 21.23920619 22.38568896 19.54141306 21.83841984 19.72513809 21.04885597
 22.88523805 19.10679089 21.80136694 22.15947118]","Left/Right",5.52622756129131,TRUE,20.8159529025,15.8825408489511,-19.8761122343267,-51.3724583946169,407.418048733587,-30.7172835197919,38.7916286734371,1.18753735524256,-1.18752573389023,-0.121448323327592,FALSE,490.204054799572,11.7648973151897,2.42394290931243
"102","P4",9,703,776,NA,"Static","2",2,"nan","nan",-167,-244,-198.425607954984,-252.790860934416,-202.371772486749,-246.725317636005,-234.030892055981,-210.630602654222,-206.064260812915,-241.049693206018,9,44,"[21.04885597 22.88523805 19.10679089 21.80136694 22.15947118 17.78747817
 17.85256295 17.67836604 19.97300005 18.01715582 18.42602901 17.63518108
 17.83419703 22.33398496 17.70306192 17.22063613 17.52614998 17.32794894
 18.60634307 19.15955893 17.81704207 18.11449602 17.98828784 18.43409007
 18.0846611  19.52947397 19.08858982 17.25706202 18.85593915 19.117116
 20.70426894 19.32084002 18.98887102 19.16405605 19.95619689 19.36579007
 20.63510288 16.98553818 18.31537485 16.97170013]","Upper/Lower",3.93729400611483,TRUE,18.919446855,12.2049946992381,-18.7599688784345,-56.9524894002826,394.316637184685,31.4256079549837,8.79086093441575,0.783168238039399,0.234451148929058,0.0247739936660819,FALSE,321.365743762878,7.71277785030908,3.09735250452738
"103","P4",9,704,855,NA,"Dynamic","2",3,"nan","nan",-196,-269,-146.909997332419,-241.989568689399,-143.647553164663,-235.000791456973,-219.731382333251,-136.519611740284,-140.07483090133,-227.347339404509,6,49,"[19.36579007 20.63510288 16.98553818 18.31537485 16.97170013 18.71138299
 18.826877   18.43522489 18.09714106 18.2269339  17.59708603 17.40396395
 19.91338213 17.40638586 17.78165018 16.87883399 17.76591991 18.89056503
 19.03102989 17.69411797 17.5450102  18.1070799  17.44733099 17.40673208
 18.48539989 18.14294397 17.30030309 18.66145595 18.00401905 26.8842401
 12.01113779 18.07955303 17.28671603 18.05379498 17.29687303 17.20706606
 20.77148389 20.4605381  19.94883898 19.84488196]","Upper/Lower",4.65451284311712,TRUE,18.346984999,-10.3903855921354,-22.2581863561477,-115.023724827915,446.284706085661,-49.090002667581,-27.0104313106013,1.34472660961884,1.08575490600226,0.101369791823901,FALSE,283.092738639995,6.79422572735988,9.54316154505652
"104","P4",9,705,392,NA,"Static","2",4,"nan","nan",-415,4,-417.687399795853,31.3504196883384,-425.495289893658,32.2929931904938,34.2959406706912,-442.086880641006,-434.625611965123,33.3952115289828,17,63,"[17.28671603 18.05379498 17.29687303 17.20706606 20.77148389 20.4605381
 19.94883898 19.84488196 19.61301919 20.64410085 20.12253716 20.64769692
 22.95422996 17.89311506 19.26319604 18.25865498 17.87458989 17.45504397
 19.78371805 17.92275999 17.73334411 18.17200403 17.17528398 17.41572586
 19.19712219 21.16352995 19.86093004 17.94024301 19.3308189  22.020987
